trials_2.thisRepN,trials_2.thisTrialN,trials_2.thisN,trials_2.thisIndex,Used_image_1,Used_image_2,Used_image_3,Used_image_4,Used_image_5,Used_image_6,Used_image_7,Used_image_8,Unused_image_1,Unused_image_2,trials.thisRepN,trials.thisTrialN,trials.thisN,trials.thisIndex,trials_4.thisRepN,trials_4.thisTrialN,trials_4.thisN,trials_4.thisIndex,trials_10.thisRepN,trials_10.thisTrialN,trials_10.thisN,trials_10.thisIndex,welcome.started,welcome.stopped,pointer_dot_0.started,pointer_dot_0.stopped,pointer_dot_1.started,pointer_dot_1.stopped,pointer_dot_2.started,pointer_dot_2.stopped,SD_image.started,SD_image.stopped,memDisplayOnTimePractice,mem_image_0_practice,mem_image_1_practice,mem_image_2_practice,mem_image_3_practice,mem_image_4_practice,mem_image_5_practice,mem_image_6_practice,mem_image_7_practice,retention_interval_practice,retro_0_post_1_practice,change_or_no_practice,cue_location_practice,mem_display_to_test_array_duration_s,mem_display_to_cue_duration_s,routine_duration_s,array_image_1f.started,array_image_1f.stopped,array_image_2f.started,array_image_2f.stopped,array_image_3f.started,array_image_3f.stopped,array_image_4f.started,array_image_4f.stopped,array_image_5f.started,array_image_5f.stopped,array_image_6f.started,array_image_6f.stopped,array_image_7f.started,array_image_7f.stopped,array_image_8f.started,array_image_8f.stopped,pointer_dot_0b.started,pointer_dot_0b.stopped,pointer_dot_1b.started,pointer_dot_1b.stopped,pointer_dot_2b.started,pointer_dot_2b.stopped,sd_practice_resp.keys,sd_practice_resp.rt,sd_practice_resp.started,sd_practice_resp.stopped,text_10.started,text_10.stopped,conf_practice_resp.keys,conf_practice_resp.rt,conf_practice_resp.started,conf_practice_resp.stopped,image.started,image.stopped,training_trial_index,memDisplayOnTimeTraining,mem_image_0_training,mem_image_1_training,mem_image_2_training,mem_image_3_training,mem_image_4_training,mem_image_5_training,mem_image_6_training,mem_image_7_training,retro_0_post_1_training,change_or_no_training,cue_location_training,array_image_1l.started,array_image_1l.stopped,test_image_0_training,test_image_1_training,test_image_2_training,test_image_3_training,test_image_4_training,test_image_5_training,test_image_6_training,test_image_7_training,consecutive_correct_retro_short,array_image_1m.started,array_image_1m.stopped,array_image_2m.started,array_image_2m.stopped,array_image_3m.started,array_image_3m.stopped,array_image_4m.started,array_image_4m.stopped,array_image_5m.started,array_image_5m.stopped,array_image_6m.started,array_image_6m.stopped,array_image_7m.started,array_image_7m.stopped,array_image_8m.started,array_image_8m.stopped,pointer_dot_0d.started,pointer_dot_0d.stopped,pointer_dot_1d.started,pointer_dot_1d.stopped,pointer_dot_2d.started,pointer_dot_2d.stopped,reminder_training.started,reminder_training.stopped,sd_training_resp.keys,sd_training_resp.rt,sd_training_resp.started,sd_training_resp.stopped,text_15.started,text_15.stopped,conf_training_resp.keys,conf_training_resp.rt,conf_training_resp.started,conf_training_resp.stopped,text.started,text.stopped,short_interval_training_finished,training_trial_index_long_this_block,correct_retro_long_this_block,retro_trials_long_this_block,long_interval_block_finished,long_block_retro_acc,reached_criterion,run_out_of_trials,participant,mapping,date,expName,psychopyVersion,frameRate,
,,,,,,,,,,,,,,0,0,0,0,,,,,,,,,20.644611722000263,None,140.67911624100088,None,140.67911624100088,None,140.67911624100088,None,199.4701327820003,None,227.78600754999934,0,7,1,9,2,6,4,8,1.6,0,1,0,2.9000000000000004,1.6,2.9000000000000004,251.9302902039999,None,251.9302902039999,None,251.9302902039999,None,251.9302902039999,None,251.9302902039999,None,251.9302902039999,None,251.9302902039999,None,251.9302902039999,None,250.63746228200034,251.14388914400115,250.63746228200034,251.14388914400115,250.63746228200034,251.14388914400115,down,3.292237235000357,251.9302902039999,None,255.27566694800043,None,z,12.474965050998435,255.27566694800043,None,255.27566694800043,None,,,,,,,,,,,,,,,,,,,,,,,,,,,,,,,,,,,,,,,,,,,,,,,,,,,,,,,,,,,,,,,,,,,,,111,32,2022_Sep_23_1406,templeton_exp2A_SD,2020.2.10,75.02800851822263,
,,,,,,,,,,,,,,1,0,1,0,,,,,,,,,,,,,,,,,,,249.36107936400003,3,7,2,8,4,5,1,6,1.6,1,0,6,1.5,1.6,2.1,272.10927520100086,None,272.10927520100086,None,272.10927520100086,None,272.10927520100086,None,272.10927520100086,None,272.10927520100086,None,272.10927520100086,None,272.10927520100086,None,272.215948330002,272.72238086500147,272.215948330002,272.72238086500147,272.215948330002,272.72238086500147,down,2.7027580159992795,272.215948330002,None,274.9482095019994,None,x,1.5544307660020422,274.9482095019994,None,274.9482095019994,None,,,,,,,,,,,,,,,,,,,,,,,,,,,,,,,,,,,,,,,,,,,,,,,,,,,,,,,,,,,,,,,,,,,,,111,32,2022_Sep_23_1406,templeton_exp2A_SD,2020.2.10,75.02800851822263,
,,,,,,,,,,,,,,2,0,2,0,,,,,,,,,,,,,,,,,,,257.13099995800076,4,9,1,7,3,6,0,8,1.6,1,1,7,1.5,1.6,2.1,279.8930022380009,None,279.8930022380009,None,279.8930022380009,None,279.8930022380009,None,279.8930022380009,None,279.8930022380009,None,279.8930022380009,None,279.8930022380009,None,279.98626665100164,280.49280665100014,279.98626665100164,280.49280665100014,279.98626665100164,280.49280665100014,left,2.5243547190002573,279.98626665100164,None,282.5320352999988,None,z,1.3386384240002371,282.5320352999988,None,282.5320352999988,None,,,,,,,,,,,,,,,,,,,,,,,,,,,,,,,,,,,,,,,,,,,,,,,,,,,,,,,,,,,,,,,,,,,,,111,32,2022_Sep_23_1406,templeton_exp2A_SD,2020.2.10,75.02800851822263,
,,,,,,,,,,,,,,3,0,3,0,,,,,,,,,,,,,,,,,,,264.5145015050002,3,8,1,6,2,5,0,7,1.6,1,1,1,1.5,1.6,2.1,287.2635327720018,None,287.2635327720018,None,287.2635327720018,None,287.2635327720018,None,287.2635327720018,None,287.2635327720018,None,287.2635327720018,None,287.2635327720018,None,287.3701731850015,287.87670963300116,287.3701731850015,287.87670963300116,287.3701731850015,287.87670963300116,left,1.4764551379994373,287.3701731850015,None,288.862978090001,None,z,2.5036303699998825,288.862978090001,None,288.862978090001,None,,,,,,,,,,,,,,,,,,,,,,,,,,,,,,,,,,,,,,,,,,,,,,,,,,,,,,,,,,,,,,,,,,,,,111,32,2022_Sep_23_1406,templeton_exp2A_SD,2020.2.10,75.02800851822263,
,,,,,,,,,,,,,,4,0,4,0,,,,,,,,,,,,,,,,,,,272.08550510499845,1,7,4,9,2,6,0,8,1.6,1,1,0,1.5,1.6,2.1,294.8340353120002,None,294.8340353120002,None,294.8340353120002,None,294.8340353120002,None,294.8340353120002,None,294.8340353120002,None,294.8340353120002,None,294.8340353120002,None,294.9406771569993,295.4471506709997,294.9406771569993,295.4471506709997,294.9406771569993,295.4471506709997,left,1.417941656000039,294.9406771569993,None,296.3801060680016,None,x,4.370535025998834,296.3801060680016,None,296.3801060680016,None,,,,,,,,,,,,,,,,,,,,,,,,,,,,,,,,,,,,,,,,,,,,,,,,,,,,,,,,,,,,,,,,,,,,,111,32,2022_Sep_23_1406,templeton_exp2A_SD,2020.2.10,75.02800851822263,
,,,,,,,,,,,,,,5,0,5,0,,,,,,,,,,,,,,,,,,,281.12040000100023,2,7,4,5,0,8,3,6,1.6,0,0,0,2.9000000000000004,1.6,2.9000000000000004,305.27001453400226,None,305.27001453400226,None,305.27001453400226,None,305.27001453400226,None,305.27001453400226,None,305.27001453400226,None,305.27001453400226,None,305.27001453400226,None,303.97719848199995,304.48371058799967,303.97719848199995,304.48371058799967,303.97719848199995,304.48371058799967,down,1.5446120369997516,305.27001453400226,None,306.8294488470019,None,z,0.7291916949980077,306.8294488470019,None,306.8294488470019,None,,,,,,,,,,,,,,,,,,,,,,,,,,,,,,,,,,,,,,,,,,,,,,,,,,,,,,,,,,,,,,,,,,,,,111,32,2022_Sep_23_1406,templeton_exp2A_SD,2020.2.10,75.02800851822263,
,,,,,,,,,,,,,,6,0,6,0,,,,,,,,,,,,,,,,,,,287.744319458001,0,9,1,6,4,8,3,5,1.6,0,0,7,2.9000000000000004,1.6,2.9000000000000004,311.8808873400012,None,311.8808873400012,None,311.8808873400012,None,311.8808873400012,None,311.8808873400012,None,311.8808873400012,None,311.8808873400012,None,311.8808873400012,None,310.58802107700103,311.09449014500206,310.58802107700103,311.09449014500206,310.58802107700103,311.09449014500206,down,1.285720797997783,311.8808873400012,None,313.18704849200003,None,z,0.6035796719988866,313.18704849200003,None,313.18704849200003,None,,,,,,,,,,,,,,,,,,,,,,,,,,,,,,,,,,,,,,,,,,,,,,,,,,,,,,,,,,,,,,,,,,,,,111,32,2022_Sep_23_1406,templeton_exp2A_SD,2020.2.10,75.02800851822263,
,,,,,,,,,,,,,,,,,,,,,,0,0,0,0,,,,,,,,,,,,,,,,,,,,,,,,0.65,0.75,1.25,,,,,,,,,,,,,,,,,,,,,,,,,,,,,,,,,,,0,328.91993997700047,2,9,1,7,0,8,3,5,1,0,1,349.599968677001,None,2,9,1,7,0,8,3,5,0,350.8127998550008,None,350.8127998550008,None,350.8127998550008,None,350.8127998550008,None,350.8127998550008,None,350.8127998550008,None,350.8127998550008,None,350.8127998550008,None,350.9193901239996,351.4258827779995,350.9193901239996,351.4258827779995,350.9193901239996,351.4258827779995,None,None,down,3.551231846999144,350.9193901239996,None,364.5142474380009,None,z,91.4351958820007,354.53143177200036,None,445.990054165999,None,,,,,,,,,111,32,2022_Sep_23_1406,templeton_exp2A_SD,2020.2.10,75.02800851822263,
,,,,,,,,,,,,,,,,,,,,,,1,0,1,0,,,,,,,,,,,,,,,,,,,,,,,,0.65,0.75,1.25,,,,,,,,,,,,,,,,,,,,,,,,,,,,,,,,,,,1,425.8951522339994,3,9,4,8,2,6,0,5,1,1,7,446.57650515800196,None,3,9,4,8,2,6,0,1,0,447.8026821429994,None,447.8026821429994,None,447.8026821429994,None,447.8026821429994,None,447.8026821429994,None,447.8026821429994,None,447.8026821429994,None,447.8026821429994,None,447.8959750819995,448.4024921490018,447.8959750819995,448.4024921490018,447.8959750819995,448.4024921490018,None,None,left,1.7186010730001726,447.8959750819995,None,None,None,z,0.7672051299996383,449.6553813009996,None,450.4416949160004,None,,,,,,,,,111,32,2022_Sep_23_1406,templeton_exp2A_SD,2020.2.10,75.02800851822263,
,,,,,,,,,,,,,,,,,,,,,,2,0,2,0,,,,,,,,,,,,,,,,,,,,,,,,0.65,0.75,1.25,,,,,,,,,,,,,,,,,,,,,,,,,,,,,,,,,,,2,430.3484045519981,1,9,2,7,3,6,4,5,1,0,4,451.02810376699927,None,1,9,2,7,3,6,4,5,0,452.25434363300155,None,452.25434363300155,None,452.25434363300155,None,452.25434363300155,None,452.25434363300155,None,452.25434363300155,None,452.25434363300155,None,452.25434363300155,None,452.3476843169992,452.85416427200107,452.3476843169992,452.85416427200107,452.3476843169992,452.85416427200107,None,None,down,2.7789325090016064,452.3476843169992,None,None,None,c,0.6173414699987916,455.17329122199953,None,455.81297208600154,None,,,,,,,,,111,32,2022_Sep_23_1406,templeton_exp2A_SD,2020.2.10,75.02800851822263,
,,,,,,,,,,,,,,,,,,,,,,3,0,3,0,,,,,,,,,,,,,,,,,,,,,,,,0.65,0.75,1.25,,,,,,,,,,,,,,,,,,,,,,,,,,,,,,,,,,,3,435.7202948919985,1,6,4,5,0,7,3,8,1,1,0,456.3994879749989,None,2,6,4,5,0,7,3,8,0,457.6256575660009,None,457.6256575660009,None,457.6256575660009,None,457.6256575660009,None,457.6256575660009,None,457.6256575660009,None,457.6256575660009,None,457.6256575660009,None,457.7189942260011,458.22540712800037,457.7189942260011,458.22540712800037,457.7189942260011,458.22540712800037,None,None,left,1.2795351409986324,457.7189942260011,None,None,None,z,0.6000699970027199,459.03846013099974,None,459.66486411799997,None,,,,,,,,,111,32,2022_Sep_23_1406,templeton_exp2A_SD,2020.2.10,75.02800851822263,
,,,,,,,,,,,,,,,,,,,,,,4,0,4,0,,,,,,,,,,,,,,,,,,,,,,,,2.05,0.75,2.05,,,,,,,,,,,,,,,,,,,,,,,,,,,,,,,,,,,4,439.56974780900055,4,8,1,5,3,9,2,6,0,0,1,460.25134357700153,None,4,8,1,5,3,9,2,6,1,462.8637104160007,None,462.8637104160007,None,462.8637104160007,None,462.8637104160007,None,462.8637104160007,None,462.8637104160007,None,462.8637104160007,None,462.8637104160007,None,461.570816984,462.0773282150003,461.570816984,462.0773282150003,461.570816984,462.0773282150003,None,None,down,1.1189008389992523,462.8637104160007,None,None,None,z,0.4714056349985185,464.0232195190001,None,464.5163967080007,None,,,,,,,,,111,32,2022_Sep_23_1406,templeton_exp2A_SD,2020.2.10,75.02800851822263,
,,,,,,,,,,,,,,,,,,,,,,5,0,5,0,,,,,,,,,,,,,,,,,,,,,,,,2.05,0.75,2.05,,,,,,,,,,,,,,,,,,,,,,,,,,,,,,,,,,,5,444.42090180800005,0,9,3,7,2,5,1,8,0,0,2,465.1028530399999,None,0,9,3,7,2,5,1,8,0,467.7151913070011,None,467.7151913070011,None,467.7151913070011,None,467.7151913070011,None,467.7151913070011,None,467.7151913070011,None,467.7151913070011,None,467.7151913070011,None,466.42232992500067,466.92883856000117,466.42232992500067,466.92883856000117,466.42232992500067,466.92883856000117,None,None,left,1.3473316790004901,467.7151913070011,None,None,None,x,0.5000003679997462,469.11463961499976,None,469.6344109740021,None,,,,,,,,,111,32,2022_Sep_23_1406,templeton_exp2A_SD,2020.2.10,75.02800851822263,
,,,,,,,,,,,,,,,,,,,,,,6,0,6,0,,,,,,,,,,,,,,,,,,,,,,,,0.65,0.75,1.25,,,,,,,,,,,,,,,,,,,,,,,,,,,,,,,,,,,6,449.54179047199796,3,5,1,9,0,7,4,6,1,1,2,470.220873233,None,3,5,2,9,0,7,4,6,0,471.4470900180022,None,471.4470900180022,None,471.4470900180022,None,471.4470900180022,None,471.4470900180022,None,471.4470900180022,None,471.4470900180022,None,471.4470900180022,None,471.54041362200223,472.046891263999,471.54041362200223,472.046891263999,471.54041362200223,472.046891263999,None,None,left,1.4102029800014861,471.54041362200223,None,None,None,z,0.6616197010007454,472.9930300679989,None,473.6729052900009,None,,,,,,,,,111,32,2022_Sep_23_1406,templeton_exp2A_SD,2020.2.10,75.02800851822263,
,,,,,,,,,,,,,,,,,,,,,,7,0,7,0,,,,,,,,,,,,,,,,,,,,,,,,0.65,0.75,1.25,,,,,,,,,,,,,,,,,,,,,,,,,,,,,,,,,,,7,453.57829604699873,1,7,2,5,0,8,3,9,1,0,6,474.2594002020014,None,1,7,2,5,0,8,3,9,0,475.47223306700107,None,475.47223306700107,None,475.47223306700107,None,475.47223306700107,None,475.47223306700107,None,475.47223306700107,None,475.47223306700107,None,475.47223306700107,None,475.57889031599916,476.0854008009992,475.57889031599916,476.0854008009992,475.57889031599916,476.0854008009992,None,None,down,2.451736669001548,475.57889031599916,None,None,None,c,0.23937163800292183,478.07125913100026,None,478.32447557400155,None,,,,,,,,,111,32,2022_Sep_23_1406,templeton_exp2A_SD,2020.2.10,75.02800851822263,
,,,,,,,,,,,,,,,,,,,,,,8,0,8,0,,,,,,,,,,,,,,,,,,,,,,,,2.05,0.75,2.05,,,,,,,,,,,,,,,,,,,,,,,,,,,,,,,,,,,8,458.23016524299965,4,7,2,8,3,6,0,5,0,1,0,478.91093729299973,None,1,7,2,8,3,6,0,5,0,481.5365751140016,None,481.5365751140016,None,481.5365751140016,None,481.5365751140016,None,481.5365751140016,None,481.5365751140016,None,481.5365751140016,None,481.5365751140016,None,480.243745521002,480.75026848500056,480.243745521002,480.75026848500056,480.243745521002,480.75026848500056,None,None,down,1.3739422330036177,481.5365751140016,None,None,None,z,0.14788156500071636,482.96271948100184,None,483.13596451800186,None,,,,,,,,,111,32,2022_Sep_23_1406,templeton_exp2A_SD,2020.2.10,75.02800851822263,
,,,,,,,,,,,,,,,,,,,,,,9,0,9,0,,,,,,,,,,,,,,,,,,,,,,,,0.65,0.75,1.25,,,,,,,,,,,,,,,,,,,,,,,,,,,,,,,,,,,9,463.0439320519981,0,9,1,7,4,6,2,8,1,1,3,483.72236735800107,None,0,9,1,3,4,6,2,8,0,484.9486168879994,None,484.9486168879994,None,484.9486168879994,None,484.9486168879994,None,484.9486168879994,None,484.9486168879994,None,484.9486168879994,None,484.9486168879994,None,485.0419300729991,485.5484521110011,485.0419300729991,485.5484521110011,485.0419300729991,485.5484521110011,None,None,down,1.8686908589988889,485.0419300729991,None,None,None,c,0.2933391910009959,486.9612002540016,None,487.28106676899915,None,,,,,,,,,111,32,2022_Sep_23_1406,templeton_exp2A_SD,2020.2.10,75.02800851822263,
,,,,,,,,,,,,,,,,,,,,,,10,0,10,0,,,,,,,,,,,,,,,,,,,,,,,,2.05,0.75,2.05,,,,,,,,,,,,,,,,,,,,,,,,,,,,,,,,,,,10,467.1884742410002,0,8,4,9,3,6,1,7,0,0,0,487.86756883400085,None,0,8,4,9,3,6,1,7,1,490.49321759899976,None,490.49321759899976,None,490.49321759899976,None,490.49321759899976,None,490.49321759899976,None,490.49321759899976,None,490.49321759899976,None,490.49321759899976,None,489.200393774001,489.7067959550004,489.200393774001,489.7067959550004,489.200393774001,489.7067959550004,None,None,down,1.249390269000287,490.49321759899976,None,None,None,z,0.1406099970008654,491.78602802000023,None,491.94596901600016,None,,,,,,,,,111,32,2022_Sep_23_1406,templeton_exp2A_SD,2020.2.10,75.02800851822263,
,,,,,,,,,,,,,,,,,,,,,,11,0,11,0,,,,,,,,,,,,,,,,,,,,,,,,0.65,0.75,1.25,,,,,,,,,,,,,,,,,,,,,,,,,,,,,,,,,,,11,471.8522805219982,2,6,4,5,3,9,1,7,1,1,0,492.5324641900006,None,0,6,4,5,3,9,1,7,1,493.7586382760019,None,493.7586382760019,None,493.7586382760019,None,493.7586382760019,None,493.7586382760019,None,493.7586382760019,None,493.7586382760019,None,493.7586382760019,None,493.86529900499954,494.37173779799923,493.86529900499954,494.37173779799923,493.86529900499954,494.37173779799923,None,None,left,1.9493211759981932,493.86529900499954,None,None,None,x,0.14211645999967004,495.864474541002,None,496.02444216599906,None,,,,,,,,,111,32,2022_Sep_23_1406,templeton_exp2A_SD,2020.2.10,75.02800851822263,
,,,,,,,,,,,,,,,,,,,,,,12,0,12,0,,,,,,,,,,,,,,,,,,,,,,,,0.65,0.75,1.25,,,,,,,,,,,,,,,,,,,,,,,,,,,,,,,,,,,12,475.92970565299765,1,5,0,8,4,7,3,9,1,1,4,496.61088612200183,None,1,5,0,8,2,7,3,9,1,497.8236791240015,None,497.8236791240015,None,497.8236791240015,None,497.8236791240015,None,497.8236791240015,None,497.8236791240015,None,497.8236791240015,None,497.8236791240015,None,497.930427962001,498.43684619600026,497.930427962001,498.43684619600026,497.930427962001,498.43684619600026,None,None,down,2.9641996749996906,497.930427962001,None,None,None,x,0.11990684400007012,500.9426564940004,None,501.07584177399985,None,,,,,,,,,111,32,2022_Sep_23_1406,templeton_exp2A_SD,2020.2.10,75.02800851822263,
,,,,,,,,,,,,,,,,,,,,,,13,0,13,0,,,,,,,,,,,,,,,,,,,,,,,,0.65,0.75,1.25,,,,,,,,,,,,,,,,,,,,,,,,,,,,,,,,,,,13,480.9836220899997,1,7,4,6,0,9,3,8,1,1,4,501.662338651,None,1,7,4,6,2,9,3,8,1,502.8884996650013,None,502.8884996650013,None,502.8884996650013,None,502.8884996650013,None,502.8884996650013,None,502.8884996650013,None,502.8884996650013,None,502.8884996650013,None,502.9816738539994,503.48825152399877,502.9816738539994,503.48825152399877,502.9816738539994,503.48825152399877,None,None,left,1.8329524100008712,502.9816738539994,None,None,None,z,0.36950342199997976,504.8611339980016,None,505.2475753100007,None,,,,,,,,,111,32,2022_Sep_23_1406,templeton_exp2A_SD,2020.2.10,75.02800851822263,
,,,,,,,,,,,,,,,,,,,,,,14,0,14,0,,,,,,,,,,,,,,,,,,,,,,,,2.05,0.75,2.05,,,,,,,,,,,,,,,,,,,,,,,,,,,,,,,,,,,14,485.1546391949996,0,5,2,9,4,7,1,6,0,0,5,505.8340751430005,None,0,5,2,9,4,7,1,6,2,508.4597202980003,None,508.4597202980003,None,508.4597202980003,None,508.4597202980003,None,508.4597202980003,None,508.4597202980003,None,508.4597202980003,None,508.4597202980003,None,507.1669101389998,507.6733352750016,507.1669101389998,507.6733352750016,507.1669101389998,507.6733352750016,None,None,down,1.2188919270010956,508.4597202980003,None,None,None,z,0.11270483999760472,509.7259359710006,None,509.8591662660001,None,,,,,,,,,111,32,2022_Sep_23_1406,templeton_exp2A_SD,2020.2.10,75.02800851822263,
,,,,,,,,,,,,,,,,,,,,,,15,0,15,0,,,,,,,,,,,,,,,,,,,,,,,,2.05,0.75,2.05,,,,,,,,,,,,,,,,,,,,,,,,,,,,,,,,,,,15,495.2526700399976,2,8,0,6,3,7,4,5,0,1,2,515.9235499919996,None,2,8,1,6,3,7,4,5,3,518.5492773000005,None,518.5492773000005,None,518.5492773000005,None,518.5492773000005,None,518.5492773000005,None,518.5492773000005,None,518.5492773000005,None,518.5492773000005,None,517.2430598610008,517.749575181002,517.2430598610008,517.749575181002,517.2430598610008,517.749575181002,None,None,left,1.3133440230012638,518.5492773000005,None,None,None,z,0.16992000099708093,519.9087185440003,None,520.0953266600009,None,,,,,,,,,111,32,2022_Sep_23_1406,templeton_exp2A_SD,2020.2.10,75.02800851822263,
,,,,,,,,,,,,,,,,,,,,,,16,0,16,0,,,,,,,,,,,,,,,,,,,,,,,,0.65,0.75,1.25,,,,,,,,,,,,,,,,,,,,,,,,,,,,,,,,,,,16,499.9996563530003,4,5,0,9,2,7,3,8,1,1,2,520.6684153440001,None,4,5,1,9,2,7,3,8,3,521.8813460450001,None,521.8813460450001,None,521.8813460450001,None,521.8813460450001,None,521.8813460450001,None,521.8813460450001,None,521.8813460450001,None,521.8813460450001,None,521.9879325869988,522.4944039370021,521.9879325869988,522.4944039370021,521.9879325869988,522.4944039370021,None,None,left,1.1386853059993882,521.9879325869988,None,None,None,z,0.10444167400055449,523.1741279830021,None,523.2940883869996,None,,,,,,,,,111,32,2022_Sep_23_1406,templeton_exp2A_SD,2020.2.10,75.02800851822263,
,,,,,,,,,,,,,,,,,,,,,,17,0,17,0,,,,,,,,,,,,,,,,,,,,,,,,0.65,0.75,1.25,,,,,,,,,,,,,,,,,,,,,,,,,,,,,,,,,,,17,503.1989797360002,1,8,2,5,3,7,0,9,1,0,4,523.8805928290021,None,1,8,2,5,3,7,0,9,3,525.0934681300023,None,525.0934681300023,None,525.0934681300023,None,525.0934681300023,None,525.0934681300023,None,525.0934681300023,None,525.0934681300023,None,525.0934681300023,None,525.200090751001,525.706508094001,525.200090751001,525.706508094001,525.200090751001,525.706508094001,None,None,down,2.5985234459985804,525.200090751001,None,None,None,x,0.1355045849995804,527.8390837510015,None,527.9990326740008,None,,,,,,,,,111,32,2022_Sep_23_1406,templeton_exp2A_SD,2020.2.10,75.02800851822263,
,,,,,,,,,,,,,,,,,,,,,,18,0,18,0,,,,,,,,,,,,,,,,,,,,,,,,0.65,0.75,1.25,,,,,,,,,,,,,,,,,,,,,,,,,,,,,,,,,,,18,507.9047982029988,3,8,0,6,4,5,1,9,1,1,2,528.5854969270003,None,3,8,2,6,4,5,1,9,3,529.7983502650022,None,529.7983502650022,None,529.7983502650022,None,529.7983502650022,None,529.7983502650022,None,529.7983502650022,None,529.7983502650022,None,529.7983502650022,None,529.9049190520018,530.4113796999991,529.9049190520018,530.4113796999991,529.9049190520018,530.4113796999991,None,None,left,1.3977054340030008,529.9049190520018,None,None,None,z,0.15821041999879526,531.3444297499991,None,531.5176127269988,None,,,,,,,,,111,32,2022_Sep_23_1406,templeton_exp2A_SD,2020.2.10,75.02800851822263,
,,,,,,,,,,,,,,,,,,,,,,19,0,19,0,,,,,,,,,,,,,,,,,,,,,,,,0.65,0.75,1.25,,,,,,,,,,,,,,,,,,,,,,,,,,,,,,,,,,,19,511.42191339000055,3,5,1,9,2,8,4,7,1,1,0,532.0907550090014,None,0,5,1,9,2,8,4,7,3,533.3035908210004,None,533.3035908210004,None,533.3035908210004,None,533.3035908210004,None,533.3035908210004,None,533.3035908210004,None,533.3035908210004,None,533.3035908210004,None,533.4102506359995,533.9167362640001,533.4102506359995,533.9167362640001,533.4102506359995,533.9167362640001,None,None,left,1.7563689589987916,533.4102506359995,None,None,None,x,0.12498964199767215,535.2096375510009,None,535.3561863329996,None,,,,,,,,,111,32,2022_Sep_23_1406,templeton_exp2A_SD,2020.2.10,75.02800851822263,
,,,,,,,,,,,,,,,,,,,,,,20,0,20,0,,,,,,,,,,,,,,,,,,,,,,,,0.65,0.75,1.25,,,,,,,,,,,,,,,,,,,,,,,,,,,,,,,,,,,20,515.2638379339987,2,5,0,9,4,7,1,6,1,0,3,535.9426143490018,None,2,5,0,9,4,7,1,6,3,537.1688941960019,None,537.1688941960019,None,537.1688941960019,None,537.1688941960019,None,537.1688941960019,None,537.1688941960019,None,537.1688941960019,None,537.1688941960019,None,537.2621883499996,537.7686784200014,537.2621883499996,537.7686784200014,537.2621883499996,537.7686784200014,None,None,down,1.4724288880024687,537.2621883499996,None,None,None,x,0.1209731519993511,538.7816191970014,None,538.9281527089988,None,,,,,,,,,111,32,2022_Sep_23_1406,templeton_exp2A_SD,2020.2.10,75.02800851822263,
,,,,,,,,,,,,,,,,,,,,,,21,0,21,0,,,,,,,,,,,,,,,,,,,,,,,,2.05,0.75,2.05,,,,,,,,,,,,,,,,,,,,,,,,,,,,,,,,,,,21,518.8324201830001,2,8,3,5,1,9,4,7,0,1,7,539.5012834510017,None,2,8,3,5,1,9,4,0,4,542.1136742070012,None,542.1136742070012,None,542.1136742070012,None,542.1136742070012,None,542.1136742070012,None,542.1136742070012,None,542.1136742070012,None,542.1136742070012,None,540.807455107999,541.3139798029988,540.807455107999,541.3139798029988,540.807455107999,541.3139798029988,None,None,left,1.220946241002821,542.1136742070012,None,None,None,z,0.13083294800162548,543.3798052029997,None,543.526414537002,None,,,,,,,,,111,32,2022_Sep_23_1406,templeton_exp2A_SD,2020.2.10,75.02800851822263,
,,,,,,,,,,,,,,,,,,,,,,22,0,22,0,,,,,,,,,,,,,,,,,,,,,,,,0.65,0.75,1.25,,,,,,,,,,,,,,,,,,,,,,,,,,,,,,,,,,,22,523.4339519819987,3,6,1,9,4,8,0,7,1,1,3,544.112922676999,None,3,6,1,2,4,8,0,7,4,545.3390926290012,None,545.3390926290012,None,545.3390926290012,None,545.3390926290012,None,545.3390926290012,None,545.3390926290012,None,545.3390926290012,None,545.3390926290012,None,545.4457559219991,545.9521241900002,545.4457559219991,545.9521241900002,545.4457559219991,545.9521241900002,None,None,left,2.120861978000903,545.4457559219991,None,None,None,c,0.09239799699935247,547.6182891280005,None,547.7248154890003,None,,,,,,,,,111,32,2022_Sep_23_1406,templeton_exp2A_SD,2020.2.10,75.02800851822263,
,,,,,,,,,,,,,,,,,,,,,,23,0,23,0,,,,,,,,,,,,,,,,,,,,,,,,0.65,0.75,1.25,,,,,,,,,,,,,,,,,,,,,,,,,,,,,,,,,,,23,527.6327275859985,4,7,1,6,0,9,3,8,1,0,2,548.3113080090006,None,4,7,1,6,0,9,3,8,4,549.5241615199993,None,549.5241615199993,None,549.5241615199993,None,549.5241615199993,None,549.5241615199993,None,549.5241615199993,None,549.5241615199993,None,549.5241615199993,None,549.6308364399993,550.1372611410006,549.6308364399993,550.1372611410006,549.6308364399993,550.1372611410006,None,None,down,1.191745814998285,549.6308364399993,None,None,None,x,0.1043537940022361,550.8703078409999,None,550.9902715780008,None,,,,,,,,,111,32,2022_Sep_23_1406,templeton_exp2A_SD,2020.2.10,75.02800851822263,
,,,,,,,,,,,,,,,,,,,,,,24,0,24,0,,,,,,,,,,,,,,,,,,,,,,,,2.05,0.75,2.05,,,,,,,,,,,,,,,,,,,,,,,,,,,,,,,,,,,24,530.8978695449987,4,8,1,6,0,7,3,5,0,0,0,551.5767327290014,None,4,8,1,6,0,7,3,5,5,554.2023756109993,None,554.2023756109993,None,554.2023756109993,None,554.2023756109993,None,554.2023756109993,None,554.2023756109993,None,554.2023756109993,None,554.2023756109993,None,552.9095461809993,553.4160719739994,552.9095461809993,553.4160719739994,552.9095461809993,553.4160719739994,None,None,down,1.0201903039996978,554.2023756109993,None,None,None,z,0.07394169199687894,555.268694491002,None,555.3619003679996,None,,,,,,,,,111,32,2022_Sep_23_1406,templeton_exp2A_SD,2020.2.10,75.02800851822263,
,,,,,,,,,,,,,,,,,,,,,,25,0,25,0,,,,,,,,,,,,,,,,,,,,,,,,0.65,0.75,1.25,,,,,,,,,,,,,,,,,,,,,,,,,,,,,,,,,,,25,535.2674962009987,3,5,0,8,1,6,4,9,1,0,6,555.9484350320017,None,3,5,0,8,1,6,4,9,5,557.1745979619991,None,557.1745979619991,None,557.1745979619991,None,557.1745979619991,None,557.1745979619991,None,557.1745979619991,None,557.1745979619991,None,557.1745979619991,None,557.267914338001,557.7743633819991,557.267914338001,557.7743633819991,557.267914338001,557.7743633819991,None,None,down,0.9307337489990459,557.267914338001,None,None,None,z,0.10972072700315039,558.2409077769989,None,558.3741477280018,None,,,,,,,,,111,32,2022_Sep_23_1406,templeton_exp2A_SD,2020.2.10,75.02800851822263,
,,,,,,,,,,,,,,,,,,,,,,26,0,26,0,,,,,,,,,,,,,,,,,,,,,,,,0.65,0.75,1.25,,,,,,,,,,,,,,,,,,,,,,,,,,,,,,,,,,,26,538.2817797969983,4,8,0,6,1,9,2,7,1,1,3,558.9606008139999,None,4,8,0,3,1,9,2,7,5,560.1734728049996,None,560.1734728049996,None,560.1734728049996,None,560.1734728049996,None,560.1734728049996,None,560.1734728049996,None,560.1734728049996,None,560.1734728049996,None,560.2801341570012,560.7865670630017,560.2801341570012,560.7865670630017,560.2801341570012,560.7865670630017,None,None,down,2.430488153000624,560.2801341570012,None,None,None,x,0.239444688999356,562.759170510999,None,563.0123522319991,None,,,,,,,,,111,32,2022_Sep_23_1406,templeton_exp2A_SD,2020.2.10,75.02800851822263,
,,,,,,,,,,,,,,,,,,,,,,27,0,27,0,,,,,,,,,,,,,,,,,,,,,,,,0.65,0.75,1.25,,,,,,,,,,,,,,,,,,,,,,,,,,,,,,,,,,,27,542.9182362059983,4,9,2,5,0,6,1,8,1,0,4,563.598857265999,None,4,9,2,5,0,6,1,8,5,564.8249843789999,None,564.8249843789999,None,564.8249843789999,None,564.8249843789999,None,564.8249843789999,None,564.8249843789999,None,564.8249843789999,None,564.8249843789999,None,564.9183748200012,565.4248035980017,564.9183748200012,565.4248035980017,564.9183748200012,565.4248035980017,None,None,down,1.3042464350000955,564.9183748200012,None,None,None,x,0.0940317810018314,566.2645067410012,None,566.384442335002,None,,,,,,,,,111,32,2022_Sep_23_1406,templeton_exp2A_SD,2020.2.10,75.02800851822263,
,,,,,,,,,,,,,,,,,,,,,,28,0,28,0,,,,,,,,,,,,,,,,,,,,,,,,2.05,0.75,2.05,,,,,,,,,,,,,,,,,,,,,,,,,,,,,,,,,,,28,546.2899204059977,1,8,3,7,4,9,0,5,0,0,3,566.9706985190023,None,1,8,3,7,4,9,0,5,6,569.5965942910007,None,569.5965942910007,None,569.5965942910007,None,569.5965942910007,None,569.5965942910007,None,569.5965942910007,None,569.5965942910007,None,569.5965942910007,None,568.2903842840024,568.7968700400015,568.2903842840024,568.7968700400015,568.2903842840024,568.7968700400015,None,None,down,0.9700143890004256,569.5965942910007,None,None,None,z,0.045136928998545045,570.6094922619995,None,570.6761366620012,None,,,,,,,,,111,32,2022_Sep_23_1406,templeton_exp2A_SD,2020.2.10,75.02800851822263,
,,,,,,,,,,,,,,,,,,,,,,29,0,29,0,,,,,,,,,,,,,,,,,,,,,,,,2.05,0.75,2.05,,,,,,,,,,,,,,,,,,,,,,,,,,,,,,,,,,,29,550.5822945949985,2,5,3,6,0,8,4,7,0,0,7,571.2626248650013,None,2,5,3,6,0,8,4,7,7,573.8882732870006,None,573.8882732870006,None,573.8882732870006,None,573.8882732870006,None,573.8882732870006,None,573.8882732870006,None,573.8882732870006,None,573.8882732870006,None,572.5821328359998,573.0885666450013,572.5821328359998,573.0885666450013,572.5821328359998,573.0885666450013,None,None,down,0.8703368289970967,573.8882732870006,None,None,None,z,0.08675593100269907,574.8079078160008,None,574.9145154069993,None,,,,,,,,,111,32,2022_Sep_23_1406,templeton_exp2A_SD,2020.2.10,75.02800851822263,
,,,,,,,,,,,,,,,,,,,,,,30,0,30,0,,,,,,,,,,,,,,,,,,,,,,,,2.05,0.75,2.05,,,,,,,,,,,,,,,,,,,,,,,,,,,,,,,,,,,30,555.8560801530002,4,8,0,5,1,9,3,6,0,0,1,576.5405766820004,None,4,8,0,5,1,9,3,6,8,579.166318505002,None,579.166318505002,None,579.166318505002,None,579.166318505002,None,579.166318505002,None,579.166318505002,None,579.166318505002,None,579.166318505002,None,577.860144702001,578.3666091570012,577.860144702001,578.3666091570012,577.860144702001,578.3666091570012,None,None,down,0.8242528509981639,579.166318505002,None,None,None,z,0.06199260599896661,580.032632278002,None,580.112549499001,None,1,,,,,,,,111,32,2022_Sep_23_1406,templeton_exp2A_SD,2020.2.10,75.02800851822263,
,,,,,,,,,,,,,,,,,,,,,,31,0,31,0,,,,,,,,,,,,,,,,,,,,,,,,2.9000000000000004,1.6,2.9000000000000004,,,,,,,,,,,,,,,,,,,,,,,,,,,,,,,,,,,31,560.0200538739991,4,5,2,6,0,7,1,8,0,0,1,580.699036091999,None,4,5,2,6,0,7,1,8,,584.1643950200014,None,584.1643950200014,None,584.1643950200014,None,584.1643950200014,None,584.1643950200014,None,584.1643950200014,None,584.1643950200014,None,584.1643950200014,None,582.858179769999,583.3647014519993,582.858179769999,583.3647014519993,582.858179769999,583.3647014519993,None,None,down,0.7141381190012908,584.1643950200014,None,None,None,z,0.10653139299756731,584.9241193000016,None,585.0440128020018,None,,0,1,1,,,,,111,32,2022_Sep_23_1406,templeton_exp2A_SD,2020.2.10,75.02800851822263,
,,,,,,,,,,,,,,,,,,,,,,32,0,32,0,,,,,,,,,,,,,,,,,,,,,,,,2.9000000000000004,1.6,2.9000000000000004,,,,,,,,,,,,,,,,,,,,,,,,,,,,,,,,,,,32,564.9501035539979,3,5,4,8,0,6,2,7,0,1,0,585.6305054600016,None,1,5,4,8,0,6,2,7,,589.1091637630016,None,589.1091637630016,None,589.1091637630016,None,589.1091637630016,None,589.1091637630016,None,589.1091637630016,None,589.1091637630016,None,589.1091637630016,None,587.802978128002,588.3094764310008,587.802978128002,588.3094764310008,587.802978128002,588.3094764310008,None,None,left,1.4334604569994553,589.1091637630016,None,None,None,z,0.10603101100059575,590.5885944490001,None,590.7085469379999,None,,1,2,2,,,,,111,32,2022_Sep_23_1406,templeton_exp2A_SD,2020.2.10,75.02800851822263,
,,,,,,,,,,,,,,,,,,,,,,33,0,33,0,,,,,,,,,,,,,,,,,,,,,,,,2.9000000000000004,1.6,2.9000000000000004,,,,,,,,,,,,,,,,,,,,,,,,,,,,,,,,,,,33,570.6158004729987,1,8,2,6,3,7,4,5,0,1,1,591.2950412499995,None,1,0,2,6,3,7,4,5,,594.7737040100001,None,594.7737040100001,None,594.7737040100001,None,594.7737040100001,None,594.7737040100001,None,594.7737040100001,None,594.7737040100001,None,594.7737040100001,None,593.4675339480018,593.9739820809991,593.4675339480018,593.9739820809991,593.4675339480018,593.9739820809991,None,None,left,0.9689054010013933,594.7737040100001,None,None,None,z,0.10009298500153818,595.7865455050014,None,595.9065740139995,None,,2,3,3,,,,,111,32,2022_Sep_23_1406,templeton_exp2A_SD,2020.2.10,75.02800851822263,
,,,,,,,,,,,,,,,,,,,,,,34,0,34,0,,,,,,,,,,,,,,,,,,,,,,,,2.9000000000000004,1.6,2.9000000000000004,,,,,,,,,,,,,,,,,,,,,,,,,,,,,,,,,,,34,575.813232616998,4,6,2,8,1,9,3,7,0,0,6,596.4930245819996,None,4,6,2,8,1,9,3,7,,599.9717090660015,None,599.9717090660015,None,599.9717090660015,None,599.9717090660015,None,599.9717090660015,None,599.9717090660015,None,599.9717090660015,None,599.9717090660015,None,598.6655664810023,599.1720106780012,598.6655664810023,599.1720106780012,598.6655664810023,599.1720106780012,None,None,down,0.7949157540024316,599.9717090660015,None,None,None,z,0.11520128800111706,600.8114356869992,None,600.9446730470008,None,,3,4,4,,,,,111,32,2022_Sep_23_1406,templeton_exp2A_SD,2020.2.10,75.02800851822263,
,,,,,,,,,,,,,,,,,,,,,,35,0,35,0,,,,,,,,,,,,,,,,,,,,,,,,2.9000000000000004,1.6,2.9000000000000004,,,,,,,,,,,,,,,,,,,,,,,,,,,,,,,,,,,35,580.8508063240006,3,7,2,5,4,8,1,6,0,0,0,601.5311111170013,None,3,7,2,5,4,8,1,6,,605.0097557720001,None,605.0097557720001,None,605.0097557720001,None,605.0097557720001,None,605.0097557720001,None,605.0097557720001,None,605.0097557720001,None,605.0097557720001,None,603.7035938820009,604.2101385759997,603.7035938820009,604.2101385759997,603.7035938820009,604.2101385759997,None,None,down,0.7248563159992045,605.0097557720001,None,None,None,z,0.07175260599979083,605.7828757770003,None,605.8761332430004,None,,4,5,5,,,,,111,32,2022_Sep_23_1406,templeton_exp2A_SD,2020.2.10,75.02800851822263,
,,,,,,,,,,,,,,,,,,,,,,36,0,36,0,,,,,,,,,,,,,,,,,,,,,,,,2.9000000000000004,1.6,2.9000000000000004,,,,,,,,,,,,,,,,,,,,,,,,,,,,,,,,,,,36,585.7817493969997,0,5,4,7,3,9,2,6,0,0,3,606.4626291630011,None,0,5,4,7,3,9,2,6,,609.9279840179988,None,609.9279840179988,None,609.9279840179988,None,609.9279840179988,None,609.9279840179988,None,609.9279840179988,None,609.9279840179988,None,609.9279840179988,None,608.6350805830007,609.1415438860022,608.6350805830007,609.1415438860022,608.6350805830007,609.1415438860022,None,None,left,2.3986283390004246,609.9279840179988,None,None,None,x,0.11156200899858959,612.3670666360013,None,612.5002781780022,None,,5,5,6,,,,,111,32,2022_Sep_23_1406,templeton_exp2A_SD,2020.2.10,75.02800851822263,
,,,,,,,,,,,,,,,,,,,,,,37,0,37,0,,,,,,,,,,,,,,,,,,,,,,,,3.3000000000000003,3.4000000000000004,3.9000000000000004,,,,,,,,,,,,,,,,,,,,,,,,,,,,,,,,,,,37,592.4047316939977,4,5,0,9,2,6,3,8,1,1,5,613.0734048990016,None,4,5,0,9,2,1,3,8,,616.9386198739994,None,616.9386198739994,None,616.9386198739994,None,616.9386198739994,None,616.9386198739994,None,616.9386198739994,None,616.9386198739994,None,616.9386198739994,None,617.0318823480011,617.538411911999,617.0318823480011,617.538411911999,617.0318823480011,617.538411911999,None,None,left,1.4786804809991736,617.0318823480011,None,None,None,c,0.10326731299937819,618.5513706109996,None,618.6713009020023,None,,6,5,6,,,,,111,32,2022_Sep_23_1406,templeton_exp2A_SD,2020.2.10,75.02800851822263,
,,,,,,,,,,,,,,,,,,,,,,38,0,38,0,,,,,,,,,,,,,,,,,,,,,,,,2.9000000000000004,1.6,2.9000000000000004,,,,,,,,,,,,,,,,,,,,,,,,,,,,,,,,,,,38,598.5784841870009,4,6,2,5,0,9,1,7,0,0,3,619.2577494770012,None,4,6,2,5,0,9,1,7,,622.7364093200013,None,622.7364093200013,None,622.7364093200013,None,622.7364093200013,None,622.7364093200013,None,622.7364093200013,None,622.7364093200013,None,622.7364093200013,None,621.4302784310021,621.9366941869994,621.4302784310021,621.9366941869994,621.4302784310021,621.9366941869994,None,None,down,1.6782136000001628,622.7364093200013,None,None,None,x,0.05488475400125026,624.4557142529993,None,624.5357262069992,None,,7,6,7,,,,,111,32,2022_Sep_23_1406,templeton_exp2A_SD,2020.2.10,75.02800851822263,
,,,,,,,,,,,,,,,,,,,,,,39,0,39,0,,,,,,,,,,,,,,,,,,,,,,,,2.9000000000000004,1.6,2.9000000000000004,,,,,,,,,,,,,,,,,,,,,,,,,,,,,,,,,,,39,604.4409234630002,1,8,4,9,2,7,0,5,0,1,0,625.1221420059992,None,3,8,4,9,2,7,0,5,,628.587568125,None,628.587568125,None,628.587568125,None,628.587568125,None,628.587568125,None,628.587568125,None,628.587568125,None,628.587568125,None,627.2813898390013,627.7878215090022,627.2813898390013,627.7878215090022,627.2813898390013,627.7878215090022,None,None,left,1.0110568380005134,628.587568125,None,None,None,z,0.13406954399761162,629.6404666740018,None,629.8004166999999,None,,8,7,8,,,,,111,32,2022_Sep_23_1406,templeton_exp2A_SD,2020.2.10,75.02800851822263,
,,,,,,,,,,,,,,,,,,,,,,40,0,40,0,,,,,,,,,,,,,,,,,,,,,,,,2.9,3.0,3.5,,,,,,,,,,,,,,,,,,,,,,,,,,,,,,,,,,,40,609.7070263909991,4,7,2,5,3,8,1,6,1,1,0,630.3868551650012,None,0,7,2,5,3,8,1,6,,633.8655199560017,None,633.8655199560017,None,633.8655199560017,None,633.8655199560017,None,633.8655199560017,None,633.8655199560017,None,633.8655199560017,None,633.8655199560017,None,633.958809128002,634.4653473979997,633.958809128002,634.4653473979997,633.958809128002,634.4653473979997,None,None,down,2.0958131560000766,633.958809128002,None,None,None,x,0.09389896900029271,636.1046412470023,None,636.224647220999,None,,9,7,8,,,,,111,32,2022_Sep_23_1406,templeton_exp2A_SD,2020.2.10,75.02800851822263,
,,,,,,,,,,,,,,,,,,,,,,41,0,41,0,,,,,,,,,,,,,,,,,,,,,,,,2.9000000000000004,1.6,2.9000000000000004,,,,,,,,,,,,,,,,,,,,,,,,,,,,,,,,,,,41,616.1305102820006,0,9,3,6,4,7,2,5,0,0,3,636.811087541002,None,0,9,3,6,4,7,2,5,,640.2764800799996,None,640.2764800799996,None,640.2764800799996,None,640.2764800799996,None,640.2764800799996,None,640.2764800799996,None,640.2764800799996,None,640.2764800799996,None,638.9835490510013,639.4900915750004,638.9835490510013,639.4900915750004,638.9835490510013,639.4900915750004,None,None,down,1.6260390489987913,640.2764800799996,None,None,None,z,0.04007554099734989,641.9424613150004,None,641.9957589260011,None,,10,8,9,,,,,111,32,2022_Sep_23_1406,templeton_exp2A_SD,2020.2.10,75.02800851822263,
,,,,,,,,,,,,,,,,,,,,,,42,0,42,0,,,,,,,,,,,,,,,,,,,,,,,,2.3000000000000003,2.4000000000000004,2.9000000000000004,,,,,,,,,,,,,,,,,,,,,,,,,,,,,,,,,,,42,621.9007417850007,1,7,3,9,0,5,2,8,1,0,6,642.5822618250022,None,1,7,3,9,0,5,2,8,,645.4477645309998,None,645.4477645309998,None,645.4477645309998,None,645.4477645309998,None,645.4477645309998,None,645.4477645309998,None,645.4477645309998,None,645.4477645309998,None,645.5543972980013,646.0609014459988,645.5543972980013,646.0609014459988,645.5543972980013,646.0609014459988,None,None,left,2.2922229940013494,645.5543972980013,None,None,None,c,0.11170120799943106,647.8869265030007,None,648.0201673439988,None,,11,8,9,,,,,111,32,2022_Sep_23_1406,templeton_exp2A_SD,2020.2.10,75.02800851822263,
,,,,,,,,,,,,,,,,,,,,,,43,0,43,0,,,,,,,,,,,,,,,,,,,,,,,,2.1,2.2,2.7,,,,,,,,,,,,,,,,,,,,,,,,,,,,,,,,,,,43,627.9256816550005,1,8,0,9,4,5,3,7,1,0,6,648.6066305970016,None,1,8,0,9,4,5,3,7,,651.2722645520007,None,651.2722645520007,None,651.2722645520007,None,651.2722645520007,None,651.2722645520007,None,651.2722645520007,None,651.2722645520007,None,651.2722645520007,None,651.3789199820021,651.8854349210014,651.3789199820021,651.8854349210014,651.3789199820021,651.8854349210014,None,None,down,0.8357132830024057,651.3789199820021,None,None,None,z,0.06806734800193226,652.258549604001,None,652.3518545369989,None,,12,8,9,,,,,111,32,2022_Sep_23_1406,templeton_exp2A_SD,2020.2.10,75.02800851822263,
,,,,,,,,,,,,,,,,,,,,,,44,0,44,0,,,,,,,,,,,,,,,,,,,,,,,,2.3000000000000003,2.4000000000000004,2.9000000000000004,,,,,,,,,,,,,,,,,,,,,,,,,,,,,,,,,,,44,632.2561500219999,2,9,0,8,4,5,3,6,1,1,2,652.9249863760015,None,2,9,1,8,4,5,3,6,,655.7905764860006,None,655.7905764860006,None,655.7905764860006,None,655.7905764860006,None,655.7905764860006,None,655.7905764860006,None,655.7905764860006,None,655.7905764860006,None,655.8972279560003,656.4036741420023,655.8972279560003,656.4036741420023,655.8972279560003,656.4036741420023,None,None,left,1.573302042997966,655.8972279560003,None,None,None,z,0.13134116099899984,657.5232492569994,None,657.6698285720013,None,,13,8,9,,,,,111,32,2022_Sep_23_1406,templeton_exp2A_SD,2020.2.10,75.02800851822263,
,,,,,,,,,,,,,,,,,,,,,,45,0,45,0,,,,,,,,,,,,,,,,,,,,,,,,2.9000000000000004,1.6,2.9000000000000004,,,,,,,,,,,,,,,,,,,,,,,,,,,,,,,,,,,45,638.4529325299991,3,8,4,7,0,5,1,6,0,1,6,659.1359042740005,None,3,8,4,7,0,5,2,6,,662.6147925260011,None,662.6147925260011,None,662.6147925260011,None,662.6147925260011,None,662.6147925260011,None,662.6147925260011,None,662.6147925260011,None,662.6147925260011,None,661.3084727050009,661.8149892950023,661.3084727050009,661.8149892950023,661.3084727050009,661.8149892950023,None,None,left,1.0558193789984216,662.6147925260011,None,None,None,z,0.15774474700083374,663.7208729500016,None,663.8941528760006,None,,14,9,10,,,,,111,32,2022_Sep_23_1406,templeton_exp2A_SD,2020.2.10,75.02800851822263,
,,,,,,,,,,,,,,,,,,,,,,46,0,46,0,,,,,,,,,,,,,,,,,,,,,,,,2.9000000000000004,1.6,2.9000000000000004,,,,,,,,,,,,,,,,,,,,,,,,,,,,,,,,,,,46,643.7999841849996,1,6,2,9,0,8,3,5,0,0,2,664.4806533449992,None,1,6,2,9,0,8,3,5,,667.9459183830004,None,667.9459183830004,None,667.9459183830004,None,667.9459183830004,None,667.9459183830004,None,667.9459183830004,None,667.9459183830004,None,667.9459183830004,None,666.6530852899996,667.1595056590013,666.6530852899996,667.1595056590013,666.6530852899996,667.1595056590013,None,None,down,1.036702321998746,667.9459183830004,None,None,None,z,0.11711445000037202,669.025510812,None,669.1588166149995,None,,15,10,11,,,,,111,32,2022_Sep_23_1406,templeton_exp2A_SD,2020.2.10,75.02800851822263,
,,,,,,,,,,,,,,,,,,,,,,47,0,47,0,,,,,,,,,,,,,,,,,,,,,,,,2.1,2.2,2.7,,,,,,,,,,,,,,,,,,,,,,,,,,,,,,,,,,,47,649.0661836420004,0,5,2,7,4,6,1,8,1,1,0,669.7452761169989,None,3,5,2,7,4,6,1,8,,672.4242418030008,None,672.4242418030008,None,672.4242418030008,None,672.4242418030008,None,672.4242418030008,None,672.4242418030008,None,672.4242418030008,None,672.4242418030008,None,672.5175967239993,673.0240295330004,672.5175967239993,673.0240295330004,672.5175967239993,673.0240295330004,None,None,down,2.297028571996634,672.5175967239993,None,None,None,c,0.0792863850001595,674.8633621080007,None,674.9566141700016,None,,16,10,11,,,,,111,32,2022_Sep_23_1406,templeton_exp2A_SD,2020.2.10,75.02800851822263,
,,,,,,,,,,,,,,,,,,,,,,48,0,48,0,,,,,,,,,,,,,,,,,,,,,,,,1.7,1.8,2.3,,,,,,,,,,,,,,,,,,,,,,,,,,,,,,,,,,,48,654.8617307549976,0,9,1,7,4,8,3,5,1,0,3,675.5430335220008,None,0,9,1,7,4,8,3,5,,677.808867194999,None,677.808867194999,None,677.808867194999,None,677.808867194999,None,677.808867194999,None,677.808867194999,None,677.808867194999,None,677.808867194999,None,677.9155463620009,678.4219684070013,677.9155463620009,678.4219684070013,677.9155463620009,678.4219684070013,None,None,left,2.2910776429998805,677.9155463620009,None,None,None,c,0.13461765800093417,680.2480014270004,None,680.4078942269989,None,,17,10,11,,,,,111,32,2022_Sep_23_1406,templeton_exp2A_SD,2020.2.10,75.02800851822263,
,,,,,,,,,,,,,,,,,,,,,,49,0,49,0,,,,,,,,,,,,,,,,,,,,,,,,2.9000000000000004,1.6,2.9000000000000004,,,,,,,,,,,,,,,,,,,,,,,,,,,,,,,,,,,49,660.312735825999,2,6,3,8,1,9,4,5,0,1,6,680.994314208001,None,2,6,3,8,1,9,0,5,,684.4596928579995,None,684.4596928579995,None,684.4596928579995,None,684.4596928579995,None,684.4596928579995,None,684.4596928579995,None,684.4596928579995,None,684.4596928579995,None,683.1668892929993,683.6733857760009,683.1668892929993,683.6733857760009,683.1668892929993,683.6733857760009,None,None,down,0.8108779599970148,684.4596928579995,None,None,None,z,0.06989257300301688,685.3127347689988,None,685.4060164740004,None,,18,10,12,,,,,111,32,2022_Sep_23_1406,templeton_exp2A_SD,2020.2.10,75.02800851822263,
,,,,,,,,,,,,,,,,,,,,,,50,0,50,0,,,,,,,,,,,,,,,,,,,,,,,,2.9000000000000004,1.6,2.9000000000000004,,,,,,,,,,,,,,,,,,,,,,,,,,,,,,,,,,,50,665.3108478739996,0,7,3,8,2,5,1,9,0,0,5,685.9924618530022,None,0,7,3,8,2,5,1,9,,689.457790032,None,689.457790032,None,689.457790032,None,689.457790032,None,689.457790032,None,689.457790032,None,689.457790032,None,689.457790032,None,688.1650082589986,688.6714475949993,688.1650082589986,688.6714475949993,688.1650082589986,688.6714475949993,None,None,down,0.8208322239952395,689.457790032,None,None,None,z,0.1144828820033581,690.3241539480005,None,690.4574101289982,None,,19,11,13,,,,,111,32,2022_Sep_23_1406,templeton_exp2A_SD,2020.2.10,75.02800851822263,
,,,,,,,,,,,,,,,,,,,,,,51,0,51,0,,,,,,,,,,,,,,,,,,,,,,,,1.9,2.0,2.5,,,,,,,,,,,,,,,,,,,,,,,,,,,,,,,,,,,51,670.3650626439958,4,5,0,8,3,6,1,7,1,0,2,691.0439052900037,None,4,5,0,8,3,6,1,7,,693.5228930380035,None,693.5228930380035,None,693.5228930380035,None,693.5228930380035,None,693.5228930380035,None,693.5228930380035,None,693.5228930380035,None,693.5228930380035,None,693.6162586610008,694.1226967030016,693.6162586610008,694.1226967030016,693.6162586610008,694.1226967030016,None,None,down,0.8463722199958283,693.6162586610008,None,None,None,z,0.08935155699873576,694.5092704710041,None,694.6158473940013,None,,20,11,13,,,,,111,32,2022_Sep_23_1406,templeton_exp2A_SD,2020.2.10,75.02800851822263,
,,,,,,,,,,,,,,,,,,,,,,52,0,52,0,,,,,,,,,,,,,,,,,,,,,,,,3.3000000000000003,3.4000000000000004,3.9000000000000004,,,,,,,,,,,,,,,,,,,,,,,,,,,,,,,,,,,52,674.5228670210017,0,8,2,7,1,5,4,6,1,1,4,695.2023445849991,None,0,8,2,7,3,5,4,6,,699.0807313289988,None,699.0807313289988,None,699.0807313289988,None,699.0807313289988,None,699.0807313289988,None,699.0807313289988,None,699.0807313289988,None,699.0807313289988,None,699.1741260950002,699.6805704369981,699.1741260950002,699.6805704369981,699.1741260950002,699.6805704369981,None,None,left,1.592492684001627,699.1741260950002,None,None,None,c,0.04911619599442929,700.8135233959983,None,700.8801675560026,None,,21,11,13,,,,,111,32,2022_Sep_23_1406,templeton_exp2A_SD,2020.2.10,75.02800851822263,
,,,,,,,,,,,,,,,,,,,,,,53,0,53,0,,,,,,,,,,,,,,,,,,,,,,,,2.5,2.6,3.1,,,,,,,,,,,,,,,,,,,,,,,,,,,,,,,,,,,53,680.7875532630023,4,7,2,6,1,5,0,8,1,1,6,701.4665907590024,None,4,7,2,6,1,5,3,8,,704.5454082569995,None,704.5454082569995,None,704.5454082569995,None,704.5454082569995,None,704.5454082569995,None,704.5454082569995,None,704.5454082569995,None,704.5454082569995,None,704.6387296440007,705.1451997830009,704.6387296440007,705.1451997830009,704.6387296440007,705.1451997830009,None,None,down,1.191886736000015,704.6387296440007,None,None,None,z,0.09639417799917283,705.8782324139975,None,705.9981927280023,None,,22,11,13,,,,,111,32,2022_Sep_23_1406,templeton_exp2A_SD,2020.2.10,75.02800851822263,
,,,,,,,,,,,,,,,,,,,,,,54,0,54,0,,,,,,,,,,,,,,,,,,,,,,,,2.9000000000000004,1.6,2.9000000000000004,,,,,,,,,,,,,,,,,,,,,,,,,,,,,,,,,,,54,685.9052662810027,0,5,2,6,1,7,3,9,0,1,2,706.5846976579996,None,0,5,4,6,1,7,3,9,,710.063353644,None,710.063353644,None,710.063353644,None,710.063353644,None,710.063353644,None,710.063353644,None,710.063353644,None,710.063353644,None,708.7571423280024,709.2635737110031,708.7571423280024,709.2635737110031,708.7571423280024,709.2635737110031,None,None,left,1.3112564220064087,710.063353644,None,None,None,z,0.11981681900215335,711.4227865889989,None,711.5560666849997,None,,23,12,14,,,,,111,32,2022_Sep_23_1406,templeton_exp2A_SD,2020.2.10,75.02800851822263,
,,,,,,,,,,,,,,,,,,,,,,55,0,55,0,,,,,,,,,,,,,,,,,,,,,,,,2.3000000000000003,2.4000000000000004,2.9000000000000004,,,,,,,,,,,,,,,,,,,,,,,,,,,,,,,,,,,55,691.4640694689988,2,6,1,8,0,7,4,9,1,0,2,712.1425404410038,None,2,6,1,8,0,7,4,9,,715.0081214040038,None,715.0081214040038,None,715.0081214040038,None,715.0081214040038,None,715.0081214040038,None,715.0081214040038,None,715.0081214040038,None,715.0081214040038,None,715.1146294860009,715.6212249270029,715.1146294860009,715.6212249270029,715.1146294860009,715.6212249270029,None,None,down,1.5400050890020793,715.1146294860009,None,None,None,z,0.07379047900030855,716.7008468150016,None,716.7941090309978,None,,24,12,14,,,,,111,32,2022_Sep_23_1406,templeton_exp2A_SD,2020.2.10,75.02800851822263,
,,,,,,,,,,,,,,,,,,,,,,56,0,56,0,,,,,,,,,,,,,,,,,,,,,,,,2.9000000000000004,1.6,2.9000000000000004,,,,,,,,,,,,,,,,,,,,,,,,,,,,,,,,,,,56,696.7009996369998,3,7,0,9,2,5,1,6,0,0,0,717.380609150001,None,3,7,0,9,2,5,1,6,,720.8592247350025,None,720.8592247350025,None,720.8592247350025,None,720.8592247350025,None,720.8592247350025,None,720.8592247350025,None,720.8592247350025,None,720.8592247350025,None,719.5530465990014,720.0595726750034,719.5530465990014,720.0595726750034,719.5530465990014,720.0595726750034,None,None,down,0.339389029002632,720.8592247350025,None,None,None,z,0.040730241998971906,721.2458075890027,None,721.3124045790028,None,,25,13,15,,,,,111,32,2022_Sep_23_1406,templeton_exp2A_SD,2020.2.10,75.02800851822263,
,,,,,,,,,,,,,,,,,,,,,,57,0,57,0,,,,,,,,,,,,,,,,,,,,,,,,2.9000000000000004,1.6,2.9000000000000004,,,,,,,,,,,,,,,,,,,,,,,,,,,,,,,,,,,57,701.2185279860023,0,8,2,7,3,5,4,6,0,1,2,721.8988656349975,None,0,8,1,7,3,5,4,6,,725.3775260900002,None,725.3775260900002,None,725.3775260900002,None,725.3775260900002,None,725.3775260900002,None,725.3775260900002,None,725.3775260900002,None,725.3775260900002,None,724.0713914160006,724.577831802002,724.0713914160006,724.577831802002,724.0713914160006,724.577831802002,None,None,down,1.9729946309962543,725.3775260900002,None,None,None,z,0.0511435970038292,727.4034223710041,None,727.4700400910006,None,,26,13,16,,,,,111,32,2022_Sep_23_1406,templeton_exp2A_SD,2020.2.10,75.02800851822263,
,,,,,,,,,,,,,,,,,,,,,,58,0,58,0,,,,,,,,,,,,,,,,,,,,,,,,3.5,3.6,4.1,,,,,,,,,,,,,,,,,,,,,,,,,,,,,,,,,,,58,707.3772188109979,1,5,2,6,0,7,3,9,1,1,5,728.0565510960005,None,1,5,2,6,0,4,3,9,,732.1216625090019,None,732.1216625090019,None,732.1216625090019,None,732.1216625090019,None,732.1216625090019,None,732.1216625090019,None,732.1216625090019,None,732.1216625090019,None,732.2282472279985,732.734762868,732.2282472279985,732.734762868,732.2282472279985,732.734762868,None,None,left,2.8823722199958866,732.2282472279985,None,None,None,x,0.08616683299624128,735.1604716099973,None,735.2670887370041,None,,27,13,16,,,,,111,32,2022_Sep_23_1406,templeton_exp2A_SD,2020.2.10,75.02800851822263,
,,,,,,,,,,,,,,,,,,,,,,59,0,59,0,,,,,,,,,,,,,,,,,,,,,,,,2.9000000000000004,1.6,2.9000000000000004,,,,,,,,,,,,,,,,,,,,,,,,,,,,,,,,,,,59,715.1729640910016,3,7,4,5,0,9,2,6,0,1,7,735.8535864029982,None,3,7,4,5,0,9,2,1,,739.3189679179995,None,739.3189679179995,None,739.3189679179995,None,739.3189679179995,None,739.3189679179995,None,739.3189679179995,None,739.3189679179995,None,739.3189679179995,None,738.0260529779989,738.5325782490036,738.0260529779989,738.5325782490036,738.0260529779989,738.5325782490036,None,None,left,1.9195505280004,739.3189679179995,None,None,None,z,0.11516553600085899,741.291461351997,None,741.4247891300038,None,,28,14,17,,,,,111,32,2022_Sep_23_1406,templeton_exp2A_SD,2020.2.10,75.02800851822263,
,,,,,,,,,,,,,,,,,,,,,,60,0,60,0,,,,,,,,,,,,,,,,,,,,,,,,2.9,3.0,3.5,,,,,,,,,,,,,,,,,,,,,,,,,,,,,,,,,,,60,722.180678200999,4,8,2,6,3,7,1,5,1,0,0,742.8642205369979,None,4,8,2,6,3,7,1,5,,746.3428364279971,None,746.3428364279971,None,746.3428364279971,None,746.3428364279971,None,746.3428364279971,None,746.3428364279971,None,746.3428364279971,None,746.3428364279971,None,746.4361870659995,746.9426988060004,746.4361870659995,746.9426988060004,746.4361870659995,746.9426988060004,None,None,left,3.314444524003193,746.4361870659995,None,None,None,x,0.12365192799916258,749.7949737950039,None,749.941563073,None,,29,14,17,,,,,111,32,2022_Sep_23_1406,templeton_exp2A_SD,2020.2.10,75.02800851822263,
,,,,,,,,,,,,,,,,,,,,,,61,0,61,0,,,,,,,,,,,,,,,,,,,,,,,,2.9000000000000004,1.6,2.9000000000000004,,,,,,,,,,,,,,,,,,,,,,,,,,,,,,,,,,,61,729.8462104519967,1,5,4,8,2,9,3,7,0,0,5,750.527967668997,None,1,5,4,8,2,9,3,7,,753.9933384879987,None,753.9933384879987,None,753.9933384879987,None,753.9933384879987,None,753.9933384879987,None,753.9933384879987,None,753.9933384879987,None,753.9933384879987,None,752.6871632140028,753.1936370010008,752.6871632140028,753.1936370010008,752.6871632140028,753.1936370010008,None,None,down,0.6852750039979583,753.9933384879987,None,None,None,z,0.05621995399997104,754.7264056159984,None,754.8063829660023,None,,30,15,18,,,,,111,32,2022_Sep_23_1406,templeton_exp2A_SD,2020.2.10,75.02800851822263,
,,,,,,,,,,,,,,,,,,,,,,62,0,62,0,,,,,,,,,,,,,,,,,,,,,,,,2.9000000000000004,1.6,2.9000000000000004,,,,,,,,,,,,,,,,,,,,,,,,,,,,,,,,,,,62,734.7133355649967,3,6,4,8,1,9,2,7,0,1,0,755.3928222090035,None,0,6,4,8,1,9,2,7,,758.8581738970024,None,758.8581738970024,None,758.8581738970024,None,758.8581738970024,None,758.8581738970024,None,758.8581738970024,None,758.8581738970024,None,758.8581738970024,None,757.5653533299992,758.071798377001,757.5653533299992,758.071798377001,757.5653533299992,758.071798377001,None,None,down,0.4284116219932912,758.8581738970024,None,None,None,z,0.028593889997864608,759.3379961039973,None,759.3913356019984,None,,31,15,19,,,,,111,32,2022_Sep_23_1406,templeton_exp2A_SD,2020.2.10,75.02800851822263,
,,,,,,,,,,,,,,,,,,,,,,63,0,63,0,,,,,,,,,,,,,,,,,,,,,,,,2.9000000000000004,1.6,2.9000000000000004,,,,,,,,,,,,,,,,,,,,,,,,,,,,,,,,,,,63,739.2978689069969,2,8,0,6,3,9,4,7,0,1,1,759.9777461850026,None,2,1,0,6,3,9,4,7,,763.456415239998,None,763.456415239998,None,763.456415239998,None,763.456415239998,None,763.456415239998,None,763.456415239998,None,763.456415239998,None,763.456415239998,None,762.1502890350021,762.6567642590016,762.1502890350021,762.6567642590016,762.1502890350021,762.6567642590016,None,None,left,0.6862092899973504,763.456415239998,None,None,None,z,0.033101223001722246,764.1894573620011,None,764.2427865110003,None,,32,16,20,,,,,111,32,2022_Sep_23_1406,templeton_exp2A_SD,2020.2.10,75.02800851822263,
,,,,,,,,,,,,,,,,,,,,,,64,0,64,0,,,,,,,,,,,,,,,,,,,,,,,,2.9000000000000004,1.6,2.9000000000000004,,,,,,,,,,,,,,,,,,,,,,,,,,,,,,,,,,,64,744.1483438050018,2,8,1,6,4,9,0,5,0,0,1,764.8292842759984,None,2,8,1,6,4,9,0,5,,768.2947100000019,None,768.2947100000019,None,768.2947100000019,None,768.2947100000019,None,768.2947100000019,None,768.2947100000019,None,768.2947100000019,None,768.2947100000019,None,767.0017554560036,767.5081852349977,767.0017554560036,767.5081852349977,767.0017554560036,767.5081852349977,None,None,down,0.6959017859990126,768.2947100000019,None,None,None,z,0.07772146500064991,769.0409816419997,None,769.1342560900011,None,,33,17,21,,,,,111,32,2022_Sep_23_1406,templeton_exp2A_SD,2020.2.10,75.02800851822263,
,,,,,,,,,,,,,,,,,,,,,,65,0,65,0,,,,,,,,,,,,,,,,,,,,,,,,2.7,2.8000000000000003,3.3000000000000003,,,,,,,,,,,,,,,,,,,,,,,,,,,,,,,,,,,65,749.0420563869957,3,7,0,9,1,8,4,6,1,1,6,769.7206819610001,None,3,7,0,9,1,8,2,6,,772.9994192300001,None,772.9994192300001,None,772.9994192300001,None,772.9994192300001,None,772.9994192300001,None,772.9994192300001,None,772.9994192300001,None,772.9994192300001,None,773.0928245230025,773.5992999700029,773.0928245230025,773.5992999700029,773.0928245230025,773.5992999700029,None,None,left,1.2098090869985754,773.0928245230025,None,None,None,z,0.08494026900007157,774.3456886060012,None,774.452276187003,None,,34,17,21,,,,,111,32,2022_Sep_23_1406,templeton_exp2A_SD,2020.2.10,75.02800851822263,
,,,,,,,,,,,,,,,,,,,,,,66,0,66,0,,,,,,,,,,,,,,,,,,,,,,,,2.9000000000000004,1.6,2.9000000000000004,,,,,,,,,,,,,,,,,,,,,,,,,,,,,,,,,,,66,754.3600747810015,1,5,4,7,2,8,0,6,0,1,0,775.0387091630037,None,3,5,4,7,2,8,0,6,,778.5174120150041,None,778.5174120150041,None,778.5174120150041,None,778.5174120150041,None,778.5174120150041,None,778.5174120150041,None,778.5174120150041,None,778.5174120150041,None,777.2111904720005,777.7177247479995,777.2111904720005,777.7177247479995,777.2111904720005,777.7177247479995,None,None,left,1.3052259750038502,778.5174120150041,None,None,None,z,0.10295880999910878,779.8636786240022,None,779.9834938900021,None,,35,18,22,,,,,111,32,2022_Sep_23_1406,templeton_exp2A_SD,2020.2.10,75.02800851822263,
,,,,,,,,,,,,,,,,,,,,,,67,0,67,0,,,,,,,,,,,,,,,,,,,,,,,,2.1,2.2,2.7,,,,,,,,,,,,,,,,,,,,,,,,,,,,,,,,,,,67,759.889889764996,0,7,4,9,3,6,2,8,1,1,7,780.5699731610002,None,0,7,4,9,3,6,2,1,,783.2489807759994,None,783.2489807759994,None,783.2489807759994,None,783.2489807759994,None,783.2489807759994,None,783.2489807759994,None,783.2489807759994,None,783.2489807759994,None,783.3422203759983,783.8487009059972,783.3422203759983,783.8487009059972,783.3422203759983,783.8487009059972,None,None,left,1.7844156159990234,783.3422203759983,None,None,None,z,0.15835094200156163,785.1682768169994,None,785.3414467760012,None,,36,18,22,,,,,111,32,2022_Sep_23_1406,templeton_exp2A_SD,2020.2.10,75.02800851822263,
,,,,,,,,,,,,,,,,,,,,,,68,0,68,0,,,,,,,,,,,,,,,,,,,,,,,,2.9000000000000004,1.6,2.9000000000000004,,,,,,,,,,,,,,,,,,,,,,,,,,,,,,,,,,,68,765.2489388840004,3,7,2,9,0,8,1,6,0,0,3,785.9278625829975,None,3,7,2,9,0,8,1,6,,789.406653748003,None,789.406653748003,None,789.406653748003,None,789.406653748003,None,789.406653748003,None,789.406653748003,None,789.406653748003,None,789.406653748003,None,788.100475254003,788.6069394459992,788.100475254003,788.6069394459992,788.100475254003,788.6069394459992,None,None,down,2.223969473001489,789.406653748003,None,None,None,x,0.0782309019996319,791.6724078800034,None,791.765675098999,None,,37,19,23,,,,,111,32,2022_Sep_23_1406,templeton_exp2A_SD,2020.2.10,75.02800851822263,
,,,,,,,,,,,,,,,,,,,,,,69,0,69,0,,,,,,,,,,,,,,,,,,,,,,,,2.1,2.2,2.7,,,,,,,,,,,,,,,,,,,,,,,,,,,,,,,,,,,69,771.6707416359968,3,8,2,5,4,6,1,9,1,1,5,792.3521190550018,None,3,8,2,5,4,0,1,9,,795.0178007670038,None,795.0178007670038,None,795.0178007670038,None,795.0178007670038,None,795.0178007670038,None,795.0178007670038,None,795.0178007670038,None,795.0178007670038,None,795.1110969919973,795.6176107459978,795.1110969919973,795.6176107459978,795.1110969919973,795.6176107459978,None,None,left,1.4315233679953963,795.1110969919973,None,None,None,x,0.06403219800267834,796.5905837649989,None,796.6705096279984,None,,38,19,23,,,,,111,32,2022_Sep_23_1406,templeton_exp2A_SD,2020.2.10,75.02800851822263,
,,,,,,,,,,,,,,,,,,,,,,70,0,70,0,,,,,,,,,,,,,,,,,,,,,,,,3.5,3.6,4.1,,,,,,,,,,,,,,,,,,,,,,,,,,,,,,,,,,,70,776.575081150997,4,5,2,6,3,8,1,9,1,1,3,797.2569256380011,None,4,5,2,0,3,8,1,9,,801.3220843730014,None,801.3220843730014,None,801.3220843730014,None,801.3220843730014,None,801.3220843730014,None,801.3220843730014,None,801.3220843730014,None,801.3220843730014,None,801.415376844001,801.9218799770024,801.415376844001,801.9218799770024,801.415376844001,801.9218799770024,None,None,left,1.631244942000194,801.415376844001,None,None,None,c,0.03190099499624921,803.0947231469981,None,803.1480323119977,None,,39,19,23,,,,,111,32,2022_Sep_23_1406,templeton_exp2A_SD,2020.2.10,75.02800851822263,
,,,,,,,,,,,,,,,,,,,,,,71,0,71,0,,,,,,,,,,,,,,,,,,,,,,,,2.9000000000000004,1.6,2.9000000000000004,,,,,,,,,,,,,,,,,,,,,,,,,,,,,,,,,,,71,783.0543570799964,1,9,4,8,3,6,2,7,0,1,7,803.7345259380018,None,1,9,4,8,3,6,2,0,,807.1998877090009,None,807.1998877090009,None,807.1998877090009,None,807.1998877090009,None,807.1998877090009,None,807.1998877090009,None,807.1998877090009,None,807.1998877090009,None,805.9070140909971,806.4135283369978,805.9070140909971,806.4135283369978,805.9070140909971,806.4135283369978,None,None,left,0.9507270930043887,807.1998877090009,None,None,None,z,0.10325854399707168,808.1994655579983,None,808.3194134829973,None,,40,20,24,,,,,111,32,2022_Sep_23_1406,templeton_exp2A_SD,2020.2.10,75.02800851822263,
,,,,,,,,,,,,,,,,,,,,,,72,0,72,0,,,,,,,,,,,,,,,,,,,,,,,,2.9000000000000004,1.6,2.9000000000000004,,,,,,,,,,,,,,,,,,,,,,,,,,,,,,,,,,,72,788.2266071939994,3,7,2,6,1,9,4,8,0,0,6,808.905873390002,None,3,7,2,6,1,9,4,8,,812.3845268939986,None,812.3845268939986,None,812.3845268939986,None,812.3845268939986,None,812.3845268939986,None,812.3845268939986,None,812.3845268939986,None,812.3845268939986,None,811.0783813620001,811.5849303139985,811.0783813620001,811.5849303139985,811.0783813620001,811.5849303139985,None,None,left,2.022085012999014,812.3845268939986,None,None,None,x,0.11616073599725496,814.4504747440005,None,814.5836952219979,None,,41,20,25,,,,,111,32,2022_Sep_23_1406,templeton_exp2A_SD,2020.2.10,75.02800851822263,
,,,,,,,,,,,,,,,,,,,,,,73,0,73,0,,,,,,,,,,,,,,,,,,,,,,,,2.9000000000000004,1.6,2.9000000000000004,,,,,,,,,,,,,,,,,,,,,,,,,,,,,,,,,,,73,794.4898814189983,3,5,0,9,4,8,1,6,0,1,3,815.1701999729994,None,3,5,0,2,4,8,1,6,,818.6355204060019,None,818.6355204060019,None,818.6355204060019,None,818.6355204060019,None,818.6355204060019,None,818.6355204060019,None,818.6355204060019,None,818.6355204060019,None,817.3427195589975,817.8491699509977,817.3427195589975,817.8491699509977,817.3427195589975,817.8491699509977,None,None,down,2.275103977000981,818.6355204060019,None,None,None,z,0.07595690000016475,820.9546410039984,None,821.0479372690024,None,,42,20,26,,,,,111,32,2022_Sep_23_1406,templeton_exp2A_SD,2020.2.10,75.02800851822263,
,,,,,,,,,,,,,,,,,,,,,,74,0,74,0,,,,,,,,,,,,,,,,,,,,,,,,2.1,2.2,2.7,,,,,,,,,,,,,,,,,,,,,,,,,,,,,,,,,,,74,800.9532889180009,0,6,1,9,2,5,4,8,1,1,5,821.6343895000027,None,0,6,1,9,2,3,4,8,,824.3000426869985,None,824.3000426869985,None,824.3000426869985,None,824.3000426869985,None,824.3000426869985,None,824.3000426869985,None,824.3000426869985,None,824.3000426869985,None,824.4066853980039,824.9131841109993,824.4066853980039,824.9131841109993,824.4066853980039,824.9131841109993,None,None,left,1.7279307499993593,824.4066853980039,None,None,None,z,0.09123452200583415,826.1793590939997,None,826.2859260719997,None,,43,20,26,,,,,111,32,2022_Sep_23_1406,templeton_exp2A_SD,2020.2.10,75.02800851822263,
,,,,,,,,,,,,,,,,,,,,,,75,0,75,0,,,,,,,,,,,,,,,,,,,,,,,,1.5,1.6,2.1,,,,,,,,,,,,,,,,,,,,,,,,,,,,,,,,,,,75,807.0020178480008,3,7,2,6,1,5,0,8,1,1,4,827.685505538997,None,3,7,2,6,4,5,0,8,,829.7513181559989,None,829.7513181559989,None,829.7513181559989,None,829.7513181559989,None,829.7513181559989,None,829.7513181559989,None,829.7513181559989,None,829.7513181559989,None,829.8579277250028,830.3644449409985,829.8579277250028,830.3644449409985,829.8579277250028,830.3644449409985,None,None,left,1.6686593680060469,829.8579277250028,None,None,None,x,0.07744858200021554,831.5772902430035,None,831.6706041630023,None,,44,20,26,,,,,111,32,2022_Sep_23_1406,templeton_exp2A_SD,2020.2.10,75.02800851822263,
,,,,,,,,,,,,,,,,,,,,,,76,0,76,0,,,,,,,,,,,,,,,,,,,,,,,,1.9,2.0,2.5,,,,,,,,,,,,,,,,,,,,,,,,,,,,,,,,,,,76,811.5779520579999,2,6,4,9,3,7,1,8,1,1,0,832.2570236690008,None,0,6,4,9,3,7,1,8,,834.7227738619986,None,834.7227738619986,None,834.7227738619986,None,834.7227738619986,None,834.7227738619986,None,834.7227738619986,None,834.7227738619986,None,834.7227738619986,None,834.8294290230042,835.3358805059979,834.8294290230042,835.3358805059979,834.8294290230042,835.3358805059979,None,None,left,2.121198913999251,834.8294290230042,None,None,None,x,0.10870259800140047,837.0018982239999,None,837.1351871139996,None,,45,20,26,,,,,111,32,2022_Sep_23_1406,templeton_exp2A_SD,2020.2.10,75.02800851822263,
,,,,,,,,,,,,,,,,,,,,,,77,0,77,0,,,,,,,,,,,,,,,,,,,,,,,,2.9000000000000004,1.6,2.9000000000000004,,,,,,,,,,,,,,,,,,,,,,,,,,,,,,,,,,,77,817.0422330530018,4,7,3,6,1,5,0,9,0,0,2,837.7216201620031,None,4,7,3,6,1,5,0,9,,841.2002219179994,None,841.2002219179994,None,841.2002219179994,None,841.2002219179994,None,841.2002219179994,None,841.2002219179994,None,841.2002219179994,None,841.2002219179994,None,839.8941724449978,840.4006012469981,839.8941724449978,840.4006012469981,839.8941724449978,840.4006012469981,None,None,down,0.35039274099835893,841.2002219179994,None,None,None,z,0.054406346003816,841.6001265099985,None,841.680147316998,None,,46,21,27,,,,,111,32,2022_Sep_23_1406,templeton_exp2A_SD,2020.2.10,75.02800851822263,
,,,,,,,,,,,,,,,,,,,,,,78,0,78,0,,,,,,,,,,,,,,,,,,,,,,,,3.1,3.2,3.7,,,,,,,,,,,,,,,,,,,,,,,,,,,,,,,,,,,78,821.5874663429968,0,8,3,7,4,6,1,5,1,0,0,842.2666157490021,None,0,8,3,7,4,6,1,5,,845.9451771259992,None,845.9451771259992,None,845.9451771259992,None,845.9451771259992,None,845.9451771259992,None,845.9451771259992,None,845.9451771259992,None,845.9451771259992,None,846.0384697219997,846.5449722780031,846.0384697219997,846.5449722780031,846.0384697219997,846.5449722780031,None,None,down,0.8241281869995873,846.0384697219997,None,None,None,z,0.12578477900387952,846.9048517819974,None,847.0513943050028,None,,47,21,27,,,,,111,32,2022_Sep_23_1406,templeton_exp2A_SD,2020.2.10,75.02800851822263,
,,,,,,,,,,,,,,,,,,,,,,79,0,79,0,,,,,,,,,,,,,,,,,,,,,,,,2.7,2.8000000000000003,3.3000000000000003,,,,,,,,,,,,,,,,,,,,,,,,,,,,,,,,,,,79,826.9567154700017,1,5,2,9,4,7,0,8,1,1,6,847.6378637439993,None,1,5,2,9,4,7,3,8,,850.9032894530028,None,850.9032894530028,None,850.9032894530028,None,850.9032894530028,None,850.9032894530028,None,850.9032894530028,None,850.9032894530028,None,850.9032894530028,None,851.009906842999,851.5163924270018,851.009906842999,851.5163924270018,851.009906842999,851.5163924270018,None,None,down,0.660771892995399,851.009906842999,None,None,None,z,0.03427284400095232,851.7163634570024,None,851.7696144349975,None,,48,21,27,,,,,111,32,2022_Sep_23_1406,templeton_exp2A_SD,2020.2.10,75.02800851822263,
,,,,,,,,,,,,,,,,,,,,,,80,0,80,0,,,,,,,,,,,,,,,,,,,,,,,,1.9,2.0,2.5,,,,,,,,,,,,,,,,,,,,,,,,,,,,,,,,,,,80,831.6759662849981,2,5,4,8,3,6,0,7,1,1,0,852.3560800159976,None,1,5,4,8,3,6,0,7,,854.8352053490016,None,854.8352053490016,None,854.8352053490016,None,854.8352053490016,None,854.8352053490016,None,854.8352053490016,None,854.8352053490016,None,854.8352053490016,None,854.9284700110002,855.4348949530031,854.9284700110002,855.4348949530031,854.9284700110002,855.4348949530031,None,None,down,0.9340563340010704,854.9284700110002,None,None,None,z,0.05192401399835944,855.9147145620009,None,855.9813758930031,None,,49,21,27,1,0.7777777777777778,0,,111,32,2022_Sep_23_1406,templeton_exp2A_SD,2020.2.10,75.02800851822263,
,,,,,,,,,,,,,,,,,,,,,,81,0,81,0,,,,,,,,,,,,,,,,,,,,,,,,2.3000000000000003,2.4000000000000004,2.9000000000000004,,,,,,,,,,,,,,,,,,,,,,,,,,,,,,,,,,,81,835.8854469149992,3,7,2,9,4,5,0,8,1,0,0,856.5544989019982,None,3,7,2,9,4,5,0,8,,859.4200748090007,None,859.4200748090007,None,859.4200748090007,None,859.4200748090007,None,859.4200748090007,None,859.4200748090007,None,859.4200748090007,None,859.4200748090007,None,859.513349466004,860.0198253530034,859.513349466004,860.0198253530034,859.513349466004,860.0198253530034,None,None,down,0.5892716369999107,859.513349466004,None,None,None,z,0.07757550799578894,860.1530597189994,None,860.2464036149977,None,,0,0,0,,,,,111,32,2022_Sep_23_1406,templeton_exp2A_SD,2020.2.10,75.02800851822263,
,,,,,,,,,,,,,,,,,,,,,,82,0,82,0,,,,,,,,,,,,,,,,,,,,,,,,2.9000000000000004,1.6,2.9000000000000004,,,,,,,,,,,,,,,,,,,,,,,,,,,,,,,,,,,82,840.1510035950014,3,9,2,6,1,8,4,5,0,0,0,860.8328684009975,None,3,9,2,6,1,8,4,5,,864.2982445599991,None,864.2982445599991,None,864.2982445599991,None,864.2982445599991,None,864.2982445599991,None,864.2982445599991,None,864.2982445599991,None,864.2982445599991,None,863.0054145300019,863.5118142580031,863.0054145300019,863.5118142580031,863.0054145300019,863.5118142580031,None,None,down,0.36437858999852324,864.2982445599991,None,None,None,z,0.04723448000004282,864.7114038549989,None,864.7780180370028,None,,1,1,1,,,,,111,32,2022_Sep_23_1406,templeton_exp2A_SD,2020.2.10,75.02800851822263,
,,,,,,,,,,,,,,,,,,,,,,83,0,83,0,,,,,,,,,,,,,,,,,,,,,,,,2.9000000000000004,1.6,2.9000000000000004,,,,,,,,,,,,,,,,,,,,,,,,,,,,,,,,,,,83,844.6838314939996,0,9,3,7,2,5,4,6,0,1,5,865.3645151759993,None,0,9,3,7,2,1,4,6,,868.8432081139981,None,868.8432081139981,None,868.8432081139981,None,868.8432081139981,None,868.8432081139981,None,868.8432081139981,None,868.8432081139981,None,868.8432081139981,None,867.5370408259987,868.0434414269985,867.5370408259987,868.0434414269985,867.5370408259987,868.0434414269985,None,None,left,0.8833642210011021,868.8432081139981,None,None,None,c,0.014511718996800482,869.7761337050033,None,869.8161222039998,None,,2,2,2,,,,,111,32,2022_Sep_23_1406,templeton_exp2A_SD,2020.2.10,75.02800851822263,
,,,,,,,,,,,,,,,,,,,,,,84,0,84,0,,,,,,,,,,,,,,,,,,,,,,,,2.3000000000000003,2.4000000000000004,2.9000000000000004,,,,,,,,,,,,,,,,,,,,,,,,,,,,,,,,,,,84,849.7218784559991,4,6,0,7,2,5,3,8,1,0,5,870.4026058329982,None,4,6,0,7,2,5,3,8,,873.2815110360025,None,873.2815110360025,None,873.2815110360025,None,873.2815110360025,None,873.2815110360025,None,873.2815110360025,None,873.2815110360025,None,873.2815110360025,None,873.3748226780008,873.8812566710039,873.3748226780008,873.8812566710039,873.3748226780008,873.8812566710039,None,None,down,0.6797072230037884,873.3748226780008,None,None,None,z,0.0560682969953632,874.0945577110033,None,874.174485208001,None,,3,2,2,,,,,111,32,2022_Sep_23_1406,templeton_exp2A_SD,2020.2.10,75.02800851822263,
,,,,,,,,,,,,,,,,,,,,,,85,0,85,0,,,,,,,,,,,,,,,,,,,,,,,,1.9,2.0,2.5,,,,,,,,,,,,,,,,,,,,,,,,,,,,,,,,,,,85,854.0795387329963,3,6,4,8,1,9,2,5,1,0,6,874.7609714209975,None,3,6,4,8,1,9,2,5,,877.226724387001,None,877.226724387001,None,877.226724387001,None,877.226724387001,None,877.226724387001,None,877.226724387001,None,877.226724387001,None,877.226724387001,None,877.3333236219987,877.8397648469982,877.3333236219987,877.8397648469982,877.3333236219987,877.8397648469982,None,None,left,2.0172955930029275,877.3333236219987,None,None,None,x,0.063428172004933,879.3991960299973,None,879.4791162800029,None,,4,2,2,,,,,111,32,2022_Sep_23_1406,templeton_exp2A_SD,2020.2.10,75.02800851822263,
,,,,,,,,,,,,,,,,,,,,,,86,0,86,0,,,,,,,,,,,,,,,,,,,,,,,,2.9000000000000004,1.6,2.9000000000000004,,,,,,,,,,,,,,,,,,,,,,,,,,,,,,,,,,,86,859.385965423,2,7,3,8,0,5,1,6,0,1,7,880.0655781009991,None,2,7,3,8,0,5,1,4,,883.5309807130034,None,883.5309807130034,None,883.5309807130034,None,883.5309807130034,None,883.5309807130034,None,883.5309807130034,None,883.5309807130034,None,883.5309807130034,None,882.2380787619986,882.7445520010006,882.2380787619986,882.7445520010006,882.2380787619986,882.7445520010006,None,None,left,1.1956265109984088,883.5309807130034,None,None,None,z,0.10018226799729746,884.7704574620002,None,884.8904237879979,None,,5,3,3,,,,,111,32,2022_Sep_23_1406,templeton_exp2A_SD,2020.2.10,75.02800851822263,
,,,,,,,,,,,,,,,,,,,,,,87,0,87,0,,,,,,,,,,,,,,,,,,,,,,,,2.1,2.2,2.7,,,,,,,,,,,,,,,,,,,,,,,,,,,,,,,,,,,87,864.7959693939956,3,6,2,9,4,5,0,7,1,1,3,885.4768661179987,None,3,6,2,1,4,5,0,7,,888.1558513880009,None,888.1558513880009,None,888.1558513880009,None,888.1558513880009,None,888.1558513880009,None,888.1558513880009,None,888.1558513880009,None,888.1558513880009,None,888.2491839819995,888.755628896004,888.2491839819995,888.755628896004,888.2491839819995,888.755628896004,None,None,left,1.3574365239983308,888.2491839819995,None,None,None,x,0.06199115599883953,889.6486488459996,None,889.7285626259982,None,,6,3,3,,,,,111,32,2022_Sep_23_1406,templeton_exp2A_SD,2020.2.10,75.02800851822263,
,,,,,,,,,,,,,,,,,,,,,,88,0,88,0,,,,,,,,,,,,,,,,,,,,,,,,2.7,2.8000000000000003,3.3000000000000003,,,,,,,,,,,,,,,,,,,,,,,,,,,,,,,,,,,88,869.6340861429962,4,6,2,9,1,8,0,5,1,1,7,890.3150252120031,None,4,6,2,9,1,8,0,3,,893.5805040800042,None,893.5805040800042,None,893.5805040800042,None,893.5805040800042,None,893.5805040800042,None,893.5805040800042,None,893.5805040800042,None,893.5805040800042,None,893.6870814580034,894.1935638599971,893.6870814580034,894.1935638599971,893.6870814580034,894.1935638599971,None,None,left,1.9675500410012319,893.6870814580034,None,None,None,x,0.09894772699772147,895.6996788140023,None,895.8196088769982,None,,7,3,3,,,,,111,32,2022_Sep_23_1406,templeton_exp2A_SD,2020.2.10,75.02800851822263,
,,,,,,,,,,,,,,,,,,,,,,89,0,89,0,,,,,,,,,,,,,,,,,,,,,,,,2.9,3.0,3.5,,,,,,,,,,,,,,,,,,,,,,,,,,,,,,,,,,,89,875.7237156899973,4,5,3,8,2,7,1,9,1,1,1,896.3927247629981,None,4,0,3,8,2,7,1,9,,899.8580627940028,None,899.8580627940028,None,899.8580627940028,None,899.8580627940028,None,899.8580627940028,None,899.8580627940028,None,899.8580627940028,None,899.8580627940028,None,899.964737287999,900.4712042280007,899.964737287999,900.4712042280007,899.964737287999,900.4712042280007,None,None,left,3.3138909850022173,899.964737287999,None,None,None,z,0.0671336599989445,903.3234040789976,None,903.416777847,None,,8,3,3,,,,,111,32,2022_Sep_23_1406,templeton_exp2A_SD,2020.2.10,75.02800851822263,
,,,,,,,,,,,,,,,,,,,,,,90,0,90,0,,,,,,,,,,,,,,,,,,,,,,,,3.5,3.6,4.1,,,,,,,,,,,,,,,,,,,,,,,,,,,,,,,,,,,90,884.1862809190025,4,5,1,7,0,6,3,9,1,1,3,904.8695474569977,None,4,5,1,2,0,6,3,9,,908.9347183799982,None,908.9347183799982,None,908.9347183799982,None,908.9347183799982,None,908.9347183799982,None,908.9347183799982,None,908.9347183799982,None,908.9347183799982,None,909.0412904449986,909.5477144879987,909.0412904449986,909.5477144879987,909.0412904449986,909.5477144879987,None,None,left,1.3093251259997487,909.0412904449986,None,None,None,x,0.02985170100146206,910.4007773409976,None,910.4540408480025,None,,9,3,3,,,,,111,32,2022_Sep_23_1406,templeton_exp2A_SD,2020.2.10,75.02800851822263,
,,,,,,,,,,,,,,,,,,,,,,91,0,91,0,,,,,,,,,,,,,,,,,,,,,,,,2.9000000000000004,1.6,2.9000000000000004,,,,,,,,,,,,,,,,,,,,,,,,,,,,,,,,,,,91,890.3603986490016,1,9,4,5,3,7,2,6,0,1,3,911.0404959029984,None,1,9,4,0,3,7,2,6,,914.5191619399993,None,914.5191619399993,None,914.5191619399993,None,914.5191619399993,None,914.5191619399993,None,914.5191619399993,None,914.5191619399993,None,914.5191619399993,None,913.2130665910008,913.7195456019981,913.2130665910008,913.7195456019981,913.2130665910008,913.7195456019981,None,None,left,0.8794458909978857,914.5191619399993,None,None,None,z,0.007791502997861244,915.4388474110019,None,915.465521021004,None,,10,4,4,,,,,111,32,2022_Sep_23_1406,templeton_exp2A_SD,2020.2.10,75.02800851822263,
,,,,,,,,,,,,,,,,,,,,,,92,0,92,0,,,,,,,,,,,,,,,,,,,,,,,,2.9000000000000004,1.6,2.9000000000000004,,,,,,,,,,,,,,,,,,,,,,,,,,,,,,,,,,,92,895.3723078419971,0,8,2,6,3,7,1,5,0,1,7,916.0519747069993,None,0,8,2,6,3,7,1,4,,919.5306649569975,None,919.5306649569975,None,919.5306649569975,None,919.5306649569975,None,919.5306649569975,None,919.5306649569975,None,919.5306649569975,None,919.5306649569975,None,918.2244544339992,918.7309777900009,918.2244544339992,918.7309777900009,918.2244544339992,918.7309777900009,None,None,left,0.9799612659990089,919.5306649569975,None,None,None,z,0.06581265800195979,920.5568733160035,None,920.6368615980027,None,,11,5,5,,,,,111,32,2022_Sep_23_1406,templeton_exp2A_SD,2020.2.10,75.02800851822263,
,,,,,,,,,,,,,,,,,,,,,,93,0,93,0,,,,,,,,,,,,,,,,,,,,,,,,2.9000000000000004,1.6,2.9000000000000004,,,,,,,,,,,,,,,,,,,,,,,,,,,,,,,,,,,93,900.5435569500005,1,9,4,6,0,5,3,8,0,1,1,921.2233067240013,None,1,2,4,6,0,5,3,8,,924.6886862020037,None,924.6886862020037,None,924.6886862020037,None,924.6886862020037,None,924.6886862020037,None,924.6886862020037,None,924.6886862020037,None,924.6886862020037,None,923.3958570649993,923.9023401480008,923.3958570649993,923.9023401480008,923.3958570649993,923.9023401480008,None,None,left,0.7738354290049756,924.6886862020037,None,None,None,z,0.05952271199930692,925.5150079660016,None,925.5949437259987,None,,12,6,6,,,,,111,32,2022_Sep_23_1406,templeton_exp2A_SD,2020.2.10,75.02800851822263,
,,,,,,,,,,,,,,,,,,,,,,94,0,94,0,,,,,,,,,,,,,,,,,,,,,,,,1.9,2.0,2.5,,,,,,,,,,,,,,,,,,,,,,,,,,,,,,,,,,,94,905.501565358998,3,8,2,7,1,6,4,9,1,0,4,926.181480690997,None,3,8,2,7,1,6,4,9,,928.6472024039977,None,928.6472024039977,None,928.6472024039977,None,928.6472024039977,None,928.6472024039977,None,928.6472024039977,None,928.6472024039977,None,928.6472024039977,None,928.753793156,929.2602565780035,928.753793156,929.2602565780035,928.753793156,929.2602565780035,None,None,left,1.4368298890040023,928.753793156,None,None,None,x,0.12534184200194431,930.2332853210028,None,930.3798197200013,None,,13,6,6,,,,,111,32,2022_Sep_23_1406,templeton_exp2A_SD,2020.2.10,75.02800851822263,
,,,,,,,,,,,,,,,,,,,,,,95,0,95,0,,,,,,,,,,,,,,,,,,,,,,,,2.9000000000000004,1.6,2.9000000000000004,,,,,,,,,,,,,,,,,,,,,,,,,,,,,,,,,,,95,910.2862069139992,1,9,2,6,4,8,3,7,0,1,4,930.9663239590009,None,1,9,2,6,0,8,3,7,,934.4450140900008,None,934.4450140900008,None,934.4450140900008,None,934.4450140900008,None,934.4450140900008,None,934.4450140900008,None,934.4450140900008,None,934.4450140900008,None,933.1388057880031,933.6452515100027,933.1388057880031,933.6452515100027,933.1388057880031,933.6452515100027,None,None,left,0.7775988729990786,934.4450140900008,None,None,None,z,0.06333476200234145,935.2713068720041,None,935.3512976479979,None,,14,7,7,,,,,111,32,2022_Sep_23_1406,templeton_exp2A_SD,2020.2.10,75.02800851822263,
,,,,,,,,,,,,,,,,,,,,,,96,0,96,0,,,,,,,,,,,,,,,,,,,,,,,,2.9000000000000004,1.6,2.9000000000000004,,,,,,,,,,,,,,,,,,,,,,,,,,,,,,,,,,,96,915.2578408709996,3,6,4,9,0,7,1,5,0,1,7,935.9377457110022,None,3,6,4,9,0,7,1,2,,939.416448875003,None,939.416448875003,None,939.416448875003,None,939.416448875003,None,939.416448875003,None,939.416448875003,None,939.416448875003,None,939.416448875003,None,938.1102805580013,938.6167100500024,938.1102805580013,938.6167100500024,938.1102805580013,938.6167100500024,None,None,left,0.8301649519999046,939.416448875003,None,None,None,z,0.06258332799916388,940.2960438290029,None,940.3760368869989,None,,15,8,8,,,,,111,32,2022_Sep_23_1406,templeton_exp2A_SD,2020.2.10,75.02800851822263,
,,,,,,,,,,,,,,,,,,,,,,97,0,97,0,,,,,,,,,,,,,,,,,,,,,,,,2.9000000000000004,1.6,2.9000000000000004,,,,,,,,,,,,,,,,,,,,,,,,,,,,,,,,,,,97,920.2834188939996,3,7,1,6,0,5,4,8,0,1,0,940.9625372930022,None,2,7,1,6,0,5,4,8,,944.4411867660019,None,944.4411867660019,None,944.4411867660019,None,944.4411867660019,None,944.4411867660019,None,944.4411867660019,None,944.4411867660019,None,944.4411867660019,None,943.1350635220006,943.6415014360027,943.1350635220006,943.6415014360027,943.1350635220006,943.6415014360027,None,None,left,0.47750797199842054,944.4411867660019,None,None,None,z,0.08558543700200971,944.9610418550001,None,945.0675900339993,None,,16,9,9,,,,,111,32,2022_Sep_23_1406,templeton_exp2A_SD,2020.2.10,75.02800851822263,
,,,,,,,,,,,,,,,,,,,,,,98,0,98,0,,,,,,,,,,,,,,,,,,,,,,,,3.1,3.2,3.7,,,,,,,,,,,,,,,,,,,,,,,,,,,,,,,,,,,98,924.9730159959981,1,5,2,8,4,9,0,6,1,0,6,945.654091245,None,1,5,2,8,4,9,0,6,,949.3193560750005,None,949.3193560750005,None,949.3193560750005,None,949.3193560750005,None,949.3193560750005,None,949.3193560750005,None,949.3193560750005,None,949.3193560750005,None,949.4260192580041,949.9324233480002,949.4260192580041,949.9324233480002,949.4260192580041,949.9324233480002,None,None,down,2.564603826001985,949.4260192580041,None,None,None,z,0.06439333700109273,952.0382936469978,None,952.1182390730028,None,,17,9,9,,,,,111,32,2022_Sep_23_1406,templeton_exp2A_SD,2020.2.10,75.02800851822263,
,,,,,,,,,,,,,,,,,,,,,,99,0,99,0,,,,,,,,,,,,,,,,,,,,,,,,2.9000000000000004,1.6,2.9000000000000004,,,,,,,,,,,,,,,,,,,,,,,,,,,,,,,,,,,99,932.0251168729992,2,6,4,9,0,7,1,5,0,0,5,952.7046763140024,None,2,6,4,9,0,7,1,5,,956.1834109620031,None,956.1834109620031,None,956.1834109620031,None,956.1834109620031,None,956.1834109620031,None,956.1834109620031,None,956.1834109620031,None,956.1834109620031,None,954.8772840059974,955.3837434899979,954.8772840059974,955.3837434899979,954.8772840059974,955.3837434899979,None,None,down,0.7992026139982045,956.1834109620031,None,None,None,z,0.06352473599690711,957.023117126002,None,957.103043699004,None,,18,10,10,,,,,111,32,2022_Sep_23_1406,templeton_exp2A_SD,2020.2.10,75.02800851822263,
,,,,,,,,,,,,,,,,,,,,,,100,0,100,0,,,,,,,,,,,,,,,,,,,,,,,,2.3000000000000003,2.4000000000000004,2.9000000000000004,,,,,,,,,,,,,,,,,,,,,,,,,,,,,,,,,,,100,937.0083712399974,2,6,3,7,4,8,0,5,1,1,5,957.6894773960012,None,2,6,3,7,4,1,0,5,,960.5684578360015,None,960.5684578360015,None,960.5684578360015,None,960.5684578360015,None,960.5684578360015,None,960.5684578360015,None,960.5684578360015,None,960.5684578360015,None,960.6617193440034,961.1682482120013,960.6617193440034,961.1682482120013,960.6617193440034,961.1682482120013,None,None,left,0.848910688997421,960.6617193440034,None,None,None,z,0.06794692699622829,961.5546853420019,None,961.6479856049991,None,,19,10,10,,,,,111,32,2022_Sep_23_1406,templeton_exp2A_SD,2020.2.10,75.02800851822263,
,,,,,,,,,,,,,,,,,,,,,,101,0,101,0,,,,,,,,,,,,,,,,,,,,,,,,2.9000000000000004,1.6,2.9000000000000004,,,,,,,,,,,,,,,,,,,,,,,,,,,,,,,,,,,101,941.5519786559998,1,8,3,7,4,9,2,5,0,0,5,962.2211229239983,None,1,8,3,7,4,9,2,5,,965.686413837997,None,965.686413837997,None,965.686413837997,None,965.686413837997,None,965.686413837997,None,965.686413837997,None,965.686413837997,None,965.686413837997,None,964.380317379997,964.886796208004,964.380317379997,964.886796208004,964.380317379997,964.886796208004,None,None,left,1.2322503049945226,965.686413837997,None,None,None,z,0.0405348310014233,966.9660059070011,None,967.0326322410037,None,,20,10,11,,,,,111,32,2022_Sep_23_1406,templeton_exp2A_SD,2020.2.10,75.02800851822263,
,,,,,,,,,,,,,,,,,,,,,,102,0,102,0,,,,,,,,,,,,,,,,,,,,,,,,2.9000000000000004,1.6,2.9000000000000004,,,,,,,,,,,,,,,,,,,,,,,,,,,,,,,,,,,102,946.9366669240007,3,6,2,5,1,8,4,9,0,0,3,967.6057446900013,None,3,6,2,5,1,8,4,9,,971.0710684509977,None,971.0710684509977,None,971.0710684509977,None,971.0710684509977,None,971.0710684509977,None,971.0710684509977,None,971.0710684509977,None,971.0710684509977,None,969.7782635589974,970.2847681970015,969.7782635589974,970.2847681970015,969.7782635589974,970.2847681970015,None,None,down,0.8155044820014155,971.0710684509977,None,None,None,z,0.05314988300233381,971.9374775340038,None,972.0040564099982,None,,21,11,12,,,,,111,32,2022_Sep_23_1406,templeton_exp2A_SD,2020.2.10,75.02800851822263,
,,,,,,,,,,,,,,,,,,,,,,103,0,103,0,,,,,,,,,,,,,,,,,,,,,,,,1.5,1.6,2.1,,,,,,,,,,,,,,,,,,,,,,,,,,,,,,,,,,,103,951.9101885210002,1,5,2,8,4,7,3,6,1,0,4,972.5905539559972,None,1,5,2,8,4,7,3,6,,974.6697195300003,None,974.6697195300003,None,974.6697195300003,None,974.6697195300003,None,974.6697195300003,None,974.6697195300003,None,974.6697195300003,None,974.6697195300003,None,974.7630293129987,975.2695533570004,974.7630293129987,975.2695533570004,974.7630293129987,975.2695533570004,None,None,left,3.9875769580030465,974.7630293129987,None,None,None,x,0.05314481200184673,978.8014826349972,None,978.8681309029998,None,,22,11,12,,,,,111,32,2022_Sep_23_1406,templeton_exp2A_SD,2020.2.10,75.02800851822263,
,,,,,,,,,,,,,,,,,,,,,,104,0,104,0,,,,,,,,,,,,,,,,,,,,,,,,2.9000000000000004,1.6,2.9000000000000004,,,,,,,,,,,,,,,,,,,,,,,,,,,,,,,,,,,104,958.7719712770013,4,5,3,7,2,9,1,8,0,1,1,979.4412641040035,None,4,0,3,7,2,9,1,8,,982.9065926219992,None,982.9065926219992,None,982.9065926219992,None,982.9065926219992,None,982.9065926219992,None,982.9065926219992,None,982.9065926219992,None,982.9065926219992,None,981.6138100520038,982.1202860740013,981.6138100520038,982.1202860740013,981.6138100520038,982.1202860740013,None,None,down,0.39597514100023545,982.9065926219992,None,None,None,z,0.05218648099980783,983.3464542939982,None,983.4130597219992,None,,23,11,13,,,,,111,32,2022_Sep_23_1406,templeton_exp2A_SD,2020.2.10,75.02800851822263,
,,,,,,,,,,,,,,,,,,,,,,105,0,105,0,,,,,,,,,,,,,,,,,,,,,,,,2.1,2.2,2.7,,,,,,,,,,,,,,,,,,,,,,,,,,,,,,,,,,,105,964.0746822100009,4,8,2,7,0,9,3,6,1,1,3,984.7459198069992,None,4,8,2,1,0,9,3,6,,987.4115682359989,None,987.4115682359989,None,987.4115682359989,None,987.4115682359989,None,987.4115682359989,None,987.4115682359989,None,987.4115682359989,None,987.4115682359989,None,987.5182447940024,988.0247023300035,987.5182447940024,988.0247023300035,987.5182447940024,988.0247023300035,None,None,left,1.112376832003065,987.5182447940024,None,None,None,z,0.024892800996894948,988.6777342560017,None,988.7177171000003,None,,24,11,13,,,,,111,32,2022_Sep_23_1406,templeton_exp2A_SD,2020.2.10,75.02800851822263,
,,,,,,,,,,,,,,,,,,,,,,106,0,106,0,,,,,,,,,,,,,,,,,,,,,,,,2.3000000000000003,2.4000000000000004,2.9000000000000004,,,,,,,,,,,,,,,,,,,,,,,,,,,,,,,,,,,106,968.6254749030013,4,7,3,9,1,8,0,6,1,0,0,989.3042596020023,None,4,7,3,9,1,8,0,6,,992.1830518619972,None,992.1830518619972,None,992.1830518619972,None,992.1830518619972,None,992.1830518619972,None,992.1830518619972,None,992.1830518619972,None,992.1830518619972,None,992.2763969160005,992.7829121890027,992.2763969160005,992.7829121890027,992.2763969160005,992.7829121890027,None,None,down,5.026140950998524,992.2763969160005,None,None,None,c,0.09218228899408132,997.354456756002,None,997.4610741750002,None,,25,11,13,,,,,111,32,2022_Sep_23_1406,templeton_exp2A_SD,2020.2.10,75.02800851822263,
,,,,,,,,,,,,,,,,,,,,,,107,0,107,0,,,,,,,,,,,,,,,,,,,,,,,,2.9000000000000004,1.6,2.9000000000000004,,,,,,,,,,,,,,,,,,,,,,,,,,,,,,,,,,,107,977.3664097260007,0,5,1,6,4,9,3,8,0,0,1,998.0474648180025,None,0,5,1,6,4,9,3,8,,1001.5129306469971,None,1001.5129306469971,None,1001.5129306469971,None,1001.5129306469971,None,1001.5129306469971,None,1001.5129306469971,None,1001.5129306469971,None,1001.5129306469971,None,1000.2200380860013,1000.726545188998,1000.2200380860013,1000.726545188998,1000.2200380860013,1000.726545188998,None,None,down,0.42968420300167054,1001.5129306469971,None,None,None,z,0.06987810599821387,1001.9927613550026,None,1002.0859820640035,None,,26,12,14,,,,,111,32,2022_Sep_23_1406,templeton_exp2A_SD,2020.2.10,75.02800851822263,
,,,,,,,,,,,,,,,,,,,,,,108,0,108,0,,,,,,,,,,,,,,,,,,,,,,,,3.5,3.6,4.1,,,,,,,,,,,,,,,,,,,,,,,,,,,,,,,,,,,108,981.9905265480011,0,7,3,8,2,9,1,5,1,1,5,1002.6724788010033,None,0,7,3,8,2,4,1,5,,1006.7375536309992,None,1006.7375536309992,None,1006.7375536309992,None,1006.7375536309992,None,1006.7375536309992,None,1006.7375536309992,None,1006.7375536309992,None,1006.7375536309992,None,1006.8441930800036,1007.3507054040019,1006.8441930800036,1007.3507054040019,1006.8441930800036,1007.3507054040019,None,None,left,1.7063383500062628,1006.8441930800036,None,None,None,x,0.09918681299313903,1008.6035294289977,None,1008.7234887099985,None,,27,12,14,,,,,111,32,2022_Sep_23_1406,templeton_exp2A_SD,2020.2.10,75.02800851822263,
,,,,,,,,,,,,,,,,,,,,,,109,0,109,0,,,,,,,,,,,,,,,,,,,,,,,,2.9000000000000004,1.6,2.9000000000000004,,,,,,,,,,,,,,,,,,,,,,,,,,,,,,,,,,,109,988.6285908870013,0,9,1,5,4,6,2,8,0,0,2,1009.3099134820004,None,0,9,1,5,4,6,2,8,,1012.7752786990022,None,1012.7752786990022,None,1012.7752786990022,None,1012.7752786990022,None,1012.7752786990022,None,1012.7752786990022,None,1012.7752786990022,None,1012.7752786990022,None,1011.4824971909984,1011.9889634889987,1011.4824971909984,1011.9889634889987,1011.4824971909984,1011.9889634889987,None,None,down,0.9193360220015165,1012.7752786990022,None,None,None,z,0.08757640599651495,1013.7349597490029,None,1013.8415480710028,None,,28,13,15,,,,,111,32,2022_Sep_23_1406,templeton_exp2A_SD,2020.2.10,75.02800851822263,
,,,,,,,,,,,,,,,,,,,,,,110,0,110,0,,,,,,,,,,,,,,,,,,,,,,,,3.3000000000000003,3.4000000000000004,3.9000000000000004,,,,,,,,,,,,,,,,,,,,,,,,,,,,,,,,,,,110,993.7480672670026,3,7,2,9,1,6,0,5,1,0,4,1014.4279939059998,None,3,7,2,9,1,6,0,5,,1018.3065437839978,None,1018.3065437839978,None,1018.3065437839978,None,1018.3065437839978,None,1018.3065437839978,None,1018.3065437839978,None,1018.3065437839978,None,1018.3065437839978,None,1018.399870594003,1018.9062993249972,1018.399870594003,1018.9062993249972,1018.399870594003,1018.9062993249972,None,None,down,1.1028069749954739,1018.399870594003,None,None,None,z,0.08453024099435424,1019.5460959960037,None,1019.6526610380024,None,,29,13,15,,,,,111,32,2022_Sep_23_1406,templeton_exp2A_SD,2020.2.10,75.02800851822263,
,,,,,,,,,,,,,,,,,,,,,,111,0,111,0,,,,,,,,,,,,,,,,,,,,,,,,1.7,1.8,2.3,,,,,,,,,,,,,,,,,,,,,,,,,,,,,,,,,,,111,999.5585303139997,3,9,2,8,0,6,4,7,1,0,4,1020.2390941900012,None,3,9,2,8,0,6,4,7,,1022.5183260609992,None,1022.5183260609992,None,1022.5183260609992,None,1022.5183260609992,None,1022.5183260609992,None,1022.5183260609992,None,1022.5183260609992,None,1022.5183260609992,None,1022.6115511680036,1023.1180684330029,1022.6115511680036,1023.1180684330029,1022.6115511680036,1023.1180684330029,None,None,down,1.1150801550029428,1022.6115511680036,None,None,None,z,0.06737355000223033,1023.7711667990006,None,1023.864415049,None,,30,13,15,,,,,111,32,2022_Sep_23_1406,templeton_exp2A_SD,2020.2.10,75.02800851822263,
,,,,,,,,,,,,,,,,,,,,,,112,0,112,0,,,,,,,,,,,,,,,,,,,,,,,,1.7,1.8,2.3,,,,,,,,,,,,,,,,,,,,,,,,,,,,,,,,,,,112,1003.7697664810003,2,7,0,9,4,6,3,5,1,1,0,1024.4509000370017,None,1,7,0,9,4,6,3,5,,1026.729992835004,None,1026.729992835004,None,1026.729992835004,None,1026.729992835004,None,1026.729992835004,None,1026.729992835004,None,1026.729992835004,None,1026.729992835004,None,1026.8232667909979,1027.3298032599996,1026.8232667909979,1027.3298032599996,1026.8232667909979,1027.3298032599996,None,None,down,2.9673567520003417,1026.8232667909979,None,None,None,c,0.1230918869987363,1029.8355360470014,None,1029.9820924160013,None,,31,13,15,,,,,111,32,2022_Sep_23_1406,templeton_exp2A_SD,2020.2.10,75.02800851822263,
,,,,,,,,,,,,,,,,,,,,,,113,0,113,0,,,,,,,,,,,,,,,,,,,,,,,,2.9000000000000004,1.6,2.9000000000000004,,,,,,,,,,,,,,,,,,,,,,,,,,,,,,,,,,,113,1009.889075283998,4,6,1,5,3,7,0,9,0,1,3,1030.5685243199987,None,4,6,1,2,3,7,0,9,,1034.0472596800028,None,1034.0472596800028,None,1034.0472596800028,None,1034.0472596800028,None,1034.0472596800028,None,1034.0472596800028,None,1034.0472596800028,None,1034.0472596800028,None,1032.741059246,1033.2475661360004,1032.741059246,1033.2475661360004,1032.741059246,1033.2475661360004,None,None,left,0.8953525409961003,1034.0472596800028,None,None,None,z,0.08510159300203668,1034.993523915,None,1035.1001767639973,None,,32,14,16,,,,,111,32,2022_Sep_23_1406,templeton_exp2A_SD,2020.2.10,75.02800851822263,
,,,,,,,,,,,,,,,,,,,,,,114,0,114,0,,,,,,,,,,,,,,,,,,,,,,,,2.9000000000000004,1.6,2.9000000000000004,,,,,,,,,,,,,,,,,,,,,,,,,,,,,,,,,,,114,1015.0064185069969,1,9,2,7,3,6,4,8,0,0,3,1035.6866600290014,None,1,9,2,7,3,6,4,8,,1039.1653286250003,None,1039.1653286250003,None,1039.1653286250003,None,1039.1653286250003,None,1039.1653286250003,None,1039.1653286250003,None,1039.1653286250003,None,1039.1653286250003,None,1037.8591487140002,1038.3654105090027,1037.8591487140002,1038.3654105090027,1037.8591487140002,1038.3654105090027,None,None,down,0.5373377789946971,1039.1653286250003,None,None,None,z,0.04696972099918639,1039.7516921700008,None,1039.8184032830031,None,,33,15,17,,,,,111,32,2022_Sep_23_1406,templeton_exp2A_SD,2020.2.10,75.02800851822263,
,,,,,,,,,,,,,,,,,,,,,,115,0,115,0,,,,,,,,,,,,,,,,,,,,,,,,2.9000000000000004,1.6,2.9000000000000004,,,,,,,,,,,,,,,,,,,,,,,,,,,,,,,,,,,115,1019.7236832039962,0,8,1,9,4,5,2,6,0,0,6,1040.4048735370015,None,0,8,1,9,4,5,2,6,,1043.8701243660034,None,1043.8701243660034,None,1043.8701243660034,None,1043.8701243660034,None,1043.8701243660034,None,1043.8701243660034,None,1043.8701243660034,None,1043.8701243660034,None,1042.577374540997,1043.083820396998,1042.577374540997,1043.083820396998,1042.577374540997,1043.083820396998,None,None,down,1.5924894199997652,1043.8701243660034,None,None,None,z,0.025043955000001006,1045.5095965590008,None,1045.5495242789984,None,,34,16,18,,,,,111,32,2022_Sep_23_1406,templeton_exp2A_SD,2020.2.10,75.02800851822263,
,,,,,,,,,,,,,,,,,,,,,,116,0,116,0,,,,,,,,,,,,,,,,,,,,,,,,2.7,2.8000000000000003,3.3000000000000003,,,,,,,,,,,,,,,,,,,,,,,,,,,,,,,,,,,116,1025.4548270939958,4,6,1,5,0,8,3,9,1,0,4,1046.1359359050039,None,4,6,1,5,0,8,3,9,,1049.4014018989983,None,1049.4014018989983,None,1049.4014018989983,None,1049.4014018989983,None,1049.4014018989983,None,1049.4014018989983,None,1049.4014018989983,None,1049.4014018989983,None,1049.5080266759978,1050.0145397509987,1049.5080266759978,1050.0145397509987,1049.5080266759978,1050.0145397509987,None,None,left,2.6906109510018723,1049.5080266759978,None,None,None,x,0.10225395599991316,1052.240387525002,None,1052.3603011329978,None,,35,16,18,,,,,111,32,2022_Sep_23_1406,templeton_exp2A_SD,2020.2.10,75.02800851822263,
,,,,,,,,,,,,,,,,,,,,,,117,0,117,0,,,,,,,,,,,,,,,,,,,,,,,,3.3000000000000003,3.4000000000000004,3.9000000000000004,,,,,,,,,,,,,,,,,,,,,,,,,,,,,,,,,,,117,1032.2671605979958,0,9,4,7,2,8,1,6,1,1,7,1052.9467656749985,None,0,9,4,7,2,8,1,3,,1056.8119861669984,None,1056.8119861669984,None,1056.8119861669984,None,1056.8119861669984,None,1056.8119861669984,None,1056.8119861669984,None,1056.8119861669984,None,1056.8119861669984,None,1056.918512766999,1057.4250444040008,1056.918512766999,1057.4250444040008,1056.918512766999,1057.4250444040008,None,None,down,5.328078435995849,1056.918512766999,None,None,None,x,0.0447396059971652,1062.289886659004,None,1062.3565142579973,None,,36,16,18,,,,,111,32,2022_Sep_23_1406,templeton_exp2A_SD,2020.2.10,75.02800851822263,
,,,,,,,,,,,,,,,,,,,,,,118,0,118,0,,,,,,,,,,,,,,,,,,,,,,,,2.9000000000000004,1.6,2.9000000000000004,,,,,,,,,,,,,,,,,,,,,,,,,,,,,,,,,,,118,1042.2636765919997,0,8,4,7,3,6,1,9,0,0,0,1062.9429195289995,None,0,8,4,7,3,6,1,9,,1066.4216283319984,None,1066.4216283319984,None,1066.4216283319984,None,1066.4216283319984,None,1066.4216283319984,None,1066.4216283319984,None,1066.4216283319984,None,1066.4216283319984,None,1065.115494120997,1065.6219294320035,1065.115494120997,1065.6219294320035,1065.115494120997,1065.6219294320035,None,None,left,1.8089969029970234,1066.4216283319984,None,None,None,c,0.04430441199656343,1068.2743235160015,None,1068.340875175003,None,,37,16,19,,,,,111,32,2022_Sep_23_1406,templeton_exp2A_SD,2020.2.10,75.02800851822263,
,,,,,,,,,,,,,,,,,,,,,,119,0,119,0,,,,,,,,,,,,,,,,,,,,,,,,3.5,3.6,4.1,,,,,,,,,,,,,,,,,,,,,,,,,,,,,,,,,,,119,1048.245284888002,3,7,1,9,0,5,2,8,1,0,6,1068.914008328,None,3,7,1,9,0,5,2,8,,1072.9790147789972,None,1072.9790147789972,None,1072.9790147789972,None,1072.9790147789972,None,1072.9790147789972,None,1072.9790147789972,None,1072.9790147789972,None,1072.9790147789972,None,1073.085762791001,1073.5922860670034,1073.085762791001,1073.5922860670034,1073.085762791001,1073.5922860670034,None,None,down,0.7928675229995861,1073.085762791001,None,None,None,z,0.025177510004141368,1073.925457381003,None,1073.9654267900041,None,,38,16,19,,,,,111,32,2022_Sep_23_1406,templeton_exp2A_SD,2020.2.10,75.02800851822263,
,,,,,,,,,,,,,,,,,,,,,,120,0,120,0,,,,,,,,,,,,,,,,,,,,,,,,2.9000000000000004,1.6,2.9000000000000004,,,,,,,,,,,,,,,,,,,,,,,,,,,,,,,,,,,120,1055.9582450019989,3,7,4,8,2,5,1,9,0,1,5,1076.6310897209987,None,3,7,4,8,2,0,1,9,,1080.096490736003,None,1080.096490736003,None,1080.096490736003,None,1080.096490736003,None,1080.096490736003,None,1080.096490736003,None,1080.096490736003,None,1080.096490736003,None,1078.8036312800032,1079.310073433,1078.8036312800032,1079.310073433,1078.8036312800032,1079.310073433,None,None,left,1.8941035179959727,1080.096490736003,None,None,None,x,0.09224582799652126,1082.0423934249993,None,1082.1490034480012,None,,39,17,20,,,,,111,32,2022_Sep_23_1406,templeton_exp2A_SD,2020.2.10,75.02800851822263,
,,,,,,,,,,,,,,,,,,,,,,121,0,121,0,,,,,,,,,,,,,,,,,,,,,,,,2.9000000000000004,1.6,2.9000000000000004,,,,,,,,,,,,,,,,,,,,,,,,,,,,,,,,,,,121,1062.0537310309992,3,8,4,7,1,5,0,9,0,1,4,1082.7354798590022,None,3,8,4,7,2,5,0,9,,1086.2007606379993,None,1086.2007606379993,None,1086.2007606379993,None,1086.2007606379993,None,1086.2007606379993,None,1086.2007606379993,None,1086.2007606379993,None,1086.2007606379993,None,1084.8946548660024,1085.4010641030036,1084.8946548660024,1085.4010641030036,1084.8946548660024,1085.4010641030036,None,None,left,1.1898495689965785,1086.2007606379993,None,None,None,z,0.12630047200218542,1087.4403394699984,None,1087.5869224240014,None,,40,18,21,,,,,111,32,2022_Sep_23_1406,templeton_exp2A_SD,2020.2.10,75.02800851822263,
,,,,,,,,,,,,,,,,,,,,,,122,0,122,0,,,,,,,,,,,,,,,,,,,,,,,,2.9000000000000004,1.6,2.9000000000000004,,,,,,,,,,,,,,,,,,,,,,,,,,,,,,,,,,,122,1067.4909935799988,3,8,4,7,2,5,1,9,0,0,2,1088.1600665540027,None,3,8,4,7,2,5,1,9,,1091.6254694360032,None,1091.6254694360032,None,1091.6254694360032,None,1091.6254694360032,None,1091.6254694360032,None,1091.6254694360032,None,1091.6254694360032,None,1091.6254694360032,None,1090.3192198469987,1090.8257033339978,1090.3192198469987,1090.8257033339978,1090.3192198469987,1090.8257033339978,None,None,down,0.7971421559996088,1091.6254694360032,None,None,None,z,0.13343551100115292,1092.465095173,None,1092.6116901330024,None,,41,19,22,,,,,111,32,2022_Sep_23_1406,templeton_exp2A_SD,2020.2.10,75.02800851822263,
,,,,,,,,,,,,,,,,,,,,,,123,0,123,0,,,,,,,,,,,,,,,,,,,,,,,,2.9000000000000004,1.6,2.9000000000000004,,,,,,,,,,,,,,,,,,,,,,,,,,,,,,,,,,,123,1072.5187293320014,3,5,4,6,1,7,0,8,0,0,3,1093.1981905700013,None,3,5,4,6,1,7,0,8,,1096.6768266020008,None,1096.6768266020008,None,1096.6768266020008,None,1096.6768266020008,None,1096.6768266020008,None,1096.6768266020008,None,1096.6768266020008,None,1096.6768266020008,None,1095.3706472819977,1095.8771662279978,1095.3706472819977,1095.8771662279978,1095.3706472819977,1095.8771662279978,None,None,down,0.8817943430040032,1096.6768266020008,None,None,None,z,0.028789909003535286,1097.609798919002,None,1097.663131677,None,,42,20,23,,,,,111,32,2022_Sep_23_1406,templeton_exp2A_SD,2020.2.10,75.02800851822263,
,,,,,,,,,,,,,,,,,,,,,,124,0,124,0,,,,,,,,,,,,,,,,,,,,,,,,2.9000000000000004,1.6,2.9000000000000004,,,,,,,,,,,,,,,,,,,,,,,,,,,,,,,,,,,124,1077.5697664380023,0,7,4,6,2,5,1,9,0,0,6,1098.249595539004,None,0,7,4,6,2,5,1,9,,1101.7282161330004,None,1101.7282161330004,None,1101.7282161330004,None,1101.7282161330004,None,1101.7282161330004,None,1101.7282161330004,None,1101.7282161330004,None,1101.7282161330004,None,1100.4220926319977,1100.9285574090027,1100.4220926319977,1100.9285574090027,1100.4220926319977,1100.9285574090027,None,None,down,0.550401079999574,1101.7282161330004,None,None,None,z,0.09462303199688904,1102.3279944230017,None,1102.448002928999,None,,43,21,24,,,,,111,32,2022_Sep_23_1406,templeton_exp2A_SD,2020.2.10,75.02800851822263,
,,,,,,,,,,,,,,,,,,,,,,125,0,125,0,,,,,,,,,,,,,,,,,,,,,,,,2.1,2.2,2.7,,,,,,,,,,,,,,,,,,,,,,,,,,,,,,,,,,,125,1082.354436386002,4,8,0,7,3,9,1,5,1,1,0,1103.0344673180007,None,2,8,0,7,3,9,1,5,,1105.7001054220018,None,1105.7001054220018,None,1105.7001054220018,None,1105.7001054220018,None,1105.7001054220018,None,1105.7001054220018,None,1105.7001054220018,None,1105.7001054220018,None,1105.8067030680031,1106.3132048920015,1105.8067030680031,1106.3132048920015,1105.8067030680031,1106.3132048920015,None,None,down,1.6238679079979192,1105.8067030680031,None,None,None,z,0.08589884100365452,1107.4727428999977,None,1107.5793661260032,None,,44,21,24,,,,,111,32,2022_Sep_23_1406,templeton_exp2A_SD,2020.2.10,75.02800851822263,
,,,,,,,,,,,,,,,,,,,,,,126,0,126,0,,,,,,,,,,,,,,,,,,,,,,,,2.5,2.6,3.1,,,,,,,,,,,,,,,,,,,,,,,,,,,,,,,,,,,126,1087.484356391,1,9,0,8,3,5,4,6,1,0,7,1108.1658551080036,None,1,9,0,8,3,5,4,6,,1111.2313414570017,None,1111.2313414570017,None,1111.2313414570017,None,1111.2313414570017,None,1111.2313414570017,None,1111.2313414570017,None,1111.2313414570017,None,1111.2313414570017,None,1111.3379703579994,1111.8444043769996,1111.3379703579994,1111.8444043769996,1111.3379703579994,1111.8444043769996,None,None,left,1.340663481001684,1111.3379703579994,None,None,None,x,0.13052351100486703,1112.7241184669983,None,1112.8706898559976,None,,45,21,24,,,,,111,32,2022_Sep_23_1406,templeton_exp2A_SD,2020.2.10,75.02800851822263,
,,,,,,,,,,,,,,,,,,,,,,127,0,127,0,,,,,,,,,,,,,,,,,,,,,,,,2.7,2.8000000000000003,3.3000000000000003,,,,,,,,,,,,,,,,,,,,,,,,,,,,,,,,,,,127,1092.7779008440011,4,7,3,6,1,5,0,8,1,1,5,1113.4570283190042,None,4,7,3,6,1,2,0,8,,1116.7359119149987,None,1116.7359119149987,None,1116.7359119149987,None,1116.7359119149987,None,1116.7359119149987,None,1116.7359119149987,None,1116.7359119149987,None,1116.7359119149987,None,1116.829221578002,1117.3356226199976,1116.829221578002,1117.3356226199976,1116.829221578002,1117.3356226199976,None,None,left,2.4173996999961673,1116.829221578002,None,None,None,x,0.09564306699758163,1119.2949833629973,None,1119.4148963070038,None,,46,21,24,,,,,111,32,2022_Sep_23_1406,templeton_exp2A_SD,2020.2.10,75.02800851822263,
