trials_2.thisRepN,trials_2.thisTrialN,trials_2.thisN,trials_2.thisIndex,Used_image_1,Used_image_2,Used_image_3,Used_image_4,Used_image_5,Used_image_6,Used_image_7,Used_image_8,Unused_image_1,Unused_image_2,trials.thisRepN,trials.thisTrialN,trials.thisN,trials.thisIndex,trials_4.thisRepN,trials_4.thisTrialN,trials_4.thisN,trials_4.thisIndex,trials_10.thisRepN,trials_10.thisTrialN,trials_10.thisN,trials_10.thisIndex,welcome.started,welcome.stopped,pointer_dot_0.started,pointer_dot_0.stopped,pointer_dot_1.started,pointer_dot_1.stopped,pointer_dot_2.started,pointer_dot_2.stopped,SD_image.started,SD_image.stopped,memDisplayOnTimePractice,mem_image_0_practice,mem_image_1_practice,mem_image_2_practice,mem_image_3_practice,mem_image_4_practice,mem_image_5_practice,mem_image_6_practice,mem_image_7_practice,retention_interval_practice,retro_0_post_1_practice,change_or_no_practice,cue_location_practice,mem_display_to_test_array_duration_s,mem_display_to_cue_duration_s,routine_duration_s,array_image_1f.started,array_image_1f.stopped,array_image_2f.started,array_image_2f.stopped,array_image_3f.started,array_image_3f.stopped,array_image_4f.started,array_image_4f.stopped,array_image_5f.started,array_image_5f.stopped,array_image_6f.started,array_image_6f.stopped,array_image_7f.started,array_image_7f.stopped,array_image_8f.started,array_image_8f.stopped,pointer_dot_0b.started,pointer_dot_0b.stopped,pointer_dot_1b.started,pointer_dot_1b.stopped,pointer_dot_2b.started,pointer_dot_2b.stopped,sd_practice_resp.keys,sd_practice_resp.rt,sd_practice_resp.started,sd_practice_resp.stopped,text_10.started,text_10.stopped,conf_practice_resp.keys,conf_practice_resp.rt,conf_practice_resp.started,conf_practice_resp.stopped,image.started,image.stopped,training_trial_index,memDisplayOnTimeTraining,mem_image_0_training,mem_image_1_training,mem_image_2_training,mem_image_3_training,mem_image_4_training,mem_image_5_training,mem_image_6_training,mem_image_7_training,retro_0_post_1_training,change_or_no_training,cue_location_training,array_image_1l.started,array_image_1l.stopped,test_image_0_training,test_image_1_training,test_image_2_training,test_image_3_training,test_image_4_training,test_image_5_training,test_image_6_training,test_image_7_training,consecutive_correct_retro_short,array_image_1m.started,array_image_1m.stopped,array_image_2m.started,array_image_2m.stopped,array_image_3m.started,array_image_3m.stopped,array_image_4m.started,array_image_4m.stopped,array_image_5m.started,array_image_5m.stopped,array_image_6m.started,array_image_6m.stopped,array_image_7m.started,array_image_7m.stopped,array_image_8m.started,array_image_8m.stopped,pointer_dot_0d.started,pointer_dot_0d.stopped,pointer_dot_1d.started,pointer_dot_1d.stopped,pointer_dot_2d.started,pointer_dot_2d.stopped,reminder_training.started,reminder_training.stopped,sd_training_resp.keys,sd_training_resp.rt,sd_training_resp.started,sd_training_resp.stopped,text_15.started,text_15.stopped,conf_training_resp.keys,conf_training_resp.rt,conf_training_resp.started,conf_training_resp.stopped,text.started,text.stopped,short_interval_training_finished,training_trial_index_long_this_block,correct_retro_long_this_block,retro_trials_long_this_block,long_interval_block_finished,long_block_retro_acc,reached_criterion,run_out_of_trials,participant,mapping,date,expName,psychopyVersion,frameRate,
,,,,,,,,,,,,,,0,0,0,0,,,,,,,,,62.28589702000005,None,287.147363187,None,287.147363187,None,287.147363187,None,310.83169678,None,300.995274556,0,7,1,8,4,5,3,6,1.6,1,1,7,1.5,1.6,2.1,365.397682059,None,365.397682059,None,365.397682059,None,365.397682059,None,365.397682059,None,365.397682059,None,365.397682059,None,365.397682059,None,365.477723279,365.9841858980001,365.477723279,365.9841858980001,365.477723279,365.9841858980001,left,2.0995686200000137,365.477723279,None,367.6368559250001,None,z,18.748445703000016,367.6368559250001,None,367.6368559250001,None,,,,,,,,,,,,,,,,,,,,,,,,,,,,,,,,,,,,,,,,,,,,,,,,,,,,,,,,,,,,,,,,,,,,,105,32,2022_Sep_08_1203,templeton_exp2A_SD,2020.2.10,37.51564285070233,
,,,,,,,,,,,,,,1,0,1,0,,,,,,,,,,,,,,,,,,,366.133187193,2,7,3,6,4,9,0,5,1.6,0,1,0,2.9000000000000004,1.6,2.9000000000000004,431.905824792,None,431.905824792,None,431.905824792,None,431.905824792,None,431.905824792,None,431.905824792,None,431.905824792,None,431.905824792,None,430.59967323600006,431.1061860980001,430.59967323600006,431.1061860980001,430.59967323600006,431.1061860980001,left,1.0234706319999987,431.905824792,None,432.985440617,None,z,2.5438705710000704,432.985440617,None,432.985440617,None,,,,,,,,,,,,,,,,,,,,,,,,,,,,,,,,,,,,,,,,,,,,,,,,,,,,,,,,,,,,,,,,,,,,,105,32,2022_Sep_08_1203,templeton_exp2A_SD,2020.2.10,37.51564285070233,
,,,,,,,,,,,,,,2,0,2,0,,,,,,,,,,,,,,,,,,,377.43778187,0,6,3,8,2,9,1,7,1.6,0,1,3,2.9000000000000004,1.6,2.9000000000000004,443.20825708899997,None,443.20825708899997,None,443.20825708899997,None,443.20825708899997,None,443.20825708899997,None,443.20825708899997,None,443.20825708899997,None,443.20825708899997,None,441.902088197,442.408571755,441.902088197,442.408571755,441.902088197,442.408571755,left,1.1450431150000213,443.20825708899997,None,444.38109543400003,None,c,1.6042047209999737,444.38109543400003,None,444.38109543400003,None,,,,,,,,,,,,,,,,,,,,,,,,,,,,,,,,,,,,,,,,,,,,,,,,,,,,,,,,,,,,,,,,,,,,,105,32,2022_Sep_08_1203,templeton_exp2A_SD,2020.2.10,37.51564285070233,
,,,,,,,,,,,,,,3,0,3,0,,,,,,,,,,,,,,,,,,,386.21927891000007,1,9,4,5,3,7,2,6,1.6,1,0,4,1.5,1.6,2.1,450.57874830000003,None,450.57874830000003,None,450.57874830000003,None,450.57874830000003,None,450.57874830000003,None,450.57874830000003,None,450.57874830000003,None,450.57874830000003,None,450.68543399600003,451.191909945,450.68543399600003,451.191909945,450.68543399600003,451.191909945,down,1.6678237699999272,450.68543399600003,None,452.39145763700003,None,x,1.145790634999912,452.39145763700003,None,452.39145763700003,None,,,,,,,,,,,,,,,,,,,,,,,,,,,,,,,,,,,,,,,,,,,,,,,,,,,,,,,,,,,,,,,,,,,,,105,32,2022_Sep_08_1203,templeton_exp2A_SD,2020.2.10,37.51564285070233,
,,,,,,,,,,,,,,4,0,4,0,,,,,,,,,,,,,,,,,,,393.737573098,4,7,1,9,3,8,0,6,1.6,1,1,2,1.5,1.6,2.1,458.122510334,None,458.122510334,None,458.122510334,None,458.122510334,None,458.122510334,None,458.122510334,None,458.122510334,None,458.122510334,None,458.202587334,458.70901575000005,458.202587334,458.70901575000005,458.202587334,458.70901575000005,down,1.7826717479999843,458.202587334,None,460.01515494500006,None,x,0.6021461289999479,460.01515494500006,None,460.01515494500006,None,,,,,,,,,,,,,,,,,,,,,,,,,,,,,,,,,,,,,,,,,,,,,,,,,,,,,,,,,,,,,,,,,,,,,105,32,2022_Sep_08_1203,templeton_exp2A_SD,2020.2.10,37.51564285070233,
,,,,,,,,,,,,,,5,0,5,0,,,,,,,,,,,,,,,,,,,400.374570811,0,5,1,6,2,8,4,7,1.6,0,0,4,2.9000000000000004,1.6,2.9000000000000004,466.146166591,None,466.146166591,None,466.146166591,None,466.146166591,None,466.146166591,None,466.146166591,None,466.146166591,None,466.146166591,None,464.840069179,465.346445355,464.840069179,465.346445355,464.840069179,465.346445355,down,1.255127999000024,466.146166591,None,467.4523552410001,None,z,1.3169424740000295,467.4523552410001,None,467.4523552410001,None,,,,,,,,,,,,,,,,,,,,,,,,,,,,,,,,,,,,,,,,,,,,,,,,,,,,,,,,,,,,,,,,,,,,,105,32,2022_Sep_08_1203,templeton_exp2A_SD,2020.2.10,37.51564285070233,
,,,,,,,,,,,,,,6,0,6,0,,,,,,,,,,,,,,,,,,,408.07872492399997,1,8,3,7,2,5,4,9,1.6,1,0,1,1.5,1.6,2.1,472.437144625,None,472.437144625,None,472.437144625,None,472.437144625,None,472.437144625,None,472.437144625,None,472.437144625,None,472.437144625,None,472.54382339000006,473.05023367800004,472.54382339000006,473.05023367800004,472.54382339000006,473.05023367800004,down,1.85747577799998,472.54382339000006,None,474.43638946500005,None,z,2.7089192050000293,474.43638946500005,None,474.43638946500005,None,,,,,,,,,,,,,,,,,,,,,,,,,,,,,,,,,,,,,,,,,,,,,,,,,,,,,,,,,,,,,,,,,,,,,105,32,2022_Sep_08_1203,templeton_exp2A_SD,2020.2.10,37.51564285070233,
,,,,,,,,,,,,,,,,,,,,,,0,0,0,0,,,,,,,,,,,,,,,,,,,,,,,,2.05,0.75,2.05,,,,,,,,,,,,,,,,,,,,,,,,,,,,,,,,,,,0,444.76030977000005,0,6,2,9,3,8,4,7,0,0,1,507.09072241900003,None,0,6,2,9,3,8,4,7,0,509.71634156100004,None,509.71634156100004,None,509.71634156100004,None,509.71634156100004,None,509.71634156100004,None,509.71634156100004,None,509.71634156100004,None,509.71634156100004,None,508.42355636800005,508.93003282899997,508.42355636800005,508.93003282899997,508.42355636800005,508.93003282899997,None,None,left,1.0369091840000237,509.71634156100004,None,None,None,z,1.05867308400002,510.82264376600006,None,511.91552899300007,None,,,,,,,,,105,32,2022_Sep_08_1203,templeton_exp2A_SD,2020.2.10,37.51564285070233,
,,,,,,,,,,,,,,,,,,,,,,1,0,1,0,,,,,,,,,,,,,,,,,,,,,,,,0.65,0.75,1.25,,,,,,,,,,,,,,,,,,,,,,,,,,,,,,,,,,,1,450.17307951400005,4,6,1,7,0,9,2,8,1,0,6,512.488679494,None,4,6,1,7,0,9,2,8,0,513.70154785,None,513.70154785,None,513.70154785,None,513.70154785,None,513.70154785,None,513.70154785,None,513.70154785,None,513.70154785,None,513.808189663,514.314561356,513.808189663,514.314561356,513.808189663,514.314561356,None,None,down,1.5771063199999844,513.808189663,None,None,None,z,6.452444817000014,515.46083387,None,521.9650325700001,None,,,,,,,,,105,32,2022_Sep_08_1203,templeton_exp2A_SD,2020.2.10,37.51564285070233,
,,,,,,,,,,,,,,,,,,,,,,2,0,2,0,,,,,,,,,,,,,,,,,,,,,,,,2.05,0.75,2.05,,,,,,,,,,,,,,,,,,,,,,,,,,,,,,,,,,,2,460.22159046,2,5,3,8,1,6,0,9,0,1,0,522.538229335,None,4,5,3,8,1,6,0,9,1,525.137210806,None,525.137210806,None,525.137210806,None,525.137210806,None,525.137210806,None,525.137210806,None,525.137210806,None,525.137210806,None,523.831013721,524.337517066,523.831013721,524.337517066,523.831013721,524.337517066,None,None,left,0.9520266120000542,525.137210806,None,None,None,z,1.139177952999944,526.150133623,None,527.3230718450001,None,,,,,,,,,105,32,2022_Sep_08_1203,templeton_exp2A_SD,2020.2.10,37.51564285070233,
,,,,,,,,,,,,,,,,,,,,,,3,0,3,0,,,,,,,,,,,,,,,,,,,,,,,,0.65,0.75,1.25,,,,,,,,,,,,,,,,,,,,,,,,,,,,,,,,,,,3,465.579732725,4,9,0,5,1,8,3,6,1,1,5,527.896184926,None,4,9,0,5,1,2,3,6,1,529.109053551,None,529.109053551,None,529.109053551,None,529.109053551,None,529.109053551,None,529.109053551,None,529.109053551,None,529.109053551,None,529.189018869,529.695487998,529.189018869,529.695487998,529.189018869,529.695487998,None,None,left,2.684283595000011,529.189018869,None,541.9308825620001,None,z,43.89864110899998,531.934614551,None,575.8646350490001,None,,,,,,,,,105,32,2022_Sep_08_1203,templeton_exp2A_SD,2020.2.10,37.51564285070233,
,,,,,,,,,,,,,,,,,,,,,,4,0,4,0,,,,,,,,,,,,,,,,,,,,,,,,2.05,0.75,2.05,,,,,,,,,,,,,,,,,,,,,,,,,,,,,,,,,,,4,514.121427866,0,5,1,6,4,9,3,7,0,1,7,576.437777879,None,0,5,1,6,4,9,3,2,2,579.036766617,None,579.036766617,None,579.036766617,None,579.036766617,None,579.036766617,None,579.036766617,None,579.036766617,None,579.036766617,None,577.730600431,578.237089986,577.730600431,578.237089986,577.730600431,578.237089986,None,None,left,1.4765306790000068,579.036766617,None,None,None,c,0.7064710739999782,580.582849867,None,581.329285628,None,,,,,,,,,105,32,2022_Sep_08_1203,templeton_exp2A_SD,2020.2.10,37.51564285070233,
,,,,,,,,,,,,,,,,,,,,,,5,0,5,0,,,,,,,,,,,,,,,,,,,,,,,,0.65,0.75,1.25,,,,,,,,,,,,,,,,,,,,,,,,,,,,,,,,,,,5,519.586351058,3,5,2,9,4,8,0,7,1,0,5,581.90241243,None,3,5,2,9,4,8,0,7,2,583.115245852,None,583.115245852,None,583.115245852,None,583.115245852,None,583.115245852,None,583.115245852,None,583.115245852,None,583.115245852,None,583.221849022,583.728361884,583.221849022,583.728361884,583.221849022,583.728361884,None,None,down,1.4194552469999735,583.221849022,None,None,None,z,1.006691090000004,584.714611346,None,585.754256016,None,,,,,,,,,105,32,2022_Sep_08_1203,templeton_exp2A_SD,2020.2.10,37.51564285070233,
,,,,,,,,,,,,,,,,,,,,,,6,0,6,0,,,,,,,,,,,,,,,,,,,,,,,,2.05,0.75,2.05,,,,,,,,,,,,,,,,,,,,,,,,,,,,,,,,,,,6,524.010908484,3,6,2,9,4,8,0,5,0,1,2,586.327387989,None,3,6,1,9,4,8,0,5,0,588.9263918190001,None,588.9263918190001,None,588.9263918190001,None,588.9263918190001,None,588.9263918190001,None,588.9263918190001,None,588.9263918190001,None,588.9263918190001,None,587.646842996,588.153360119,587.646842996,588.153360119,587.646842996,588.153360119,None,None,down,1.8748945690000483,588.9263918190001,None,None,None,z,0.2889882199999647,590.8723076690001,None,591.1921827560001,None,,,,,,,,,105,32,2022_Sep_08_1203,templeton_exp2A_SD,2020.2.10,37.51564285070233,
,,,,,,,,,,,,,,,,,,,,,,7,0,7,0,,,,,,,,,,,,,,,,,,,,,,,,2.05,0.75,2.05,,,,,,,,,,,,,,,,,,,,,,,,,,,,,,,,,,,7,529.448908831,4,7,2,5,0,8,1,9,0,1,5,591.7652647990001,None,4,7,2,5,0,3,1,9,1,594.3643338090001,None,594.3643338090001,None,594.3643338090001,None,594.3643338090001,None,594.3643338090001,None,594.3643338090001,None,594.3643338090001,None,594.3643338090001,None,593.058188118,593.5645908600001,593.058188118,593.5645908600001,593.058188118,593.5645908600001,None,None,left,2.0609638269999095,594.3643338090001,None,None,None,z,0.7285417880000296,596.496764016,None,597.269889735,None,,,,,,,,,105,32,2022_Sep_08_1203,templeton_exp2A_SD,2020.2.10,37.51564285070233,
,,,,,,,,,,,,,,,,,,,,,,8,0,8,0,,,,,,,,,,,,,,,,,,,,,,,,2.05,0.75,2.05,,,,,,,,,,,,,,,,,,,,,,,,,,,,,,,,,,,8,535.525719162,3,9,2,6,4,5,0,7,0,0,6,597.843001255,None,3,9,2,6,4,5,0,7,2,600.44196005,None,600.44196005,None,600.44196005,None,600.44196005,None,600.44196005,None,600.44196005,None,600.44196005,None,600.44196005,None,599.135850948,599.642326526,599.135850948,599.642326526,599.135850948,599.642326526,None,None,down,1.0873375600000372,600.44196005,None,None,None,z,1.197051440999985,601.5882110470001,None,602.814379551,None,,,,,,,,,105,32,2022_Sep_08_1203,templeton_exp2A_SD,2020.2.10,37.51564285070233,
,,,,,,,,,,,,,,,,,,,,,,9,0,9,0,,,,,,,,,,,,,,,,,,,,,,,,2.05,0.75,2.05,,,,,,,,,,,,,,,,,,,,,,,,,,,,,,,,,,,9,541.0716178600001,0,6,3,9,2,7,1,8,0,1,5,603.387577477,None,0,6,3,9,2,4,1,8,3,605.986552179,None,605.986552179,None,605.986552179,None,605.986552179,None,605.986552179,None,605.986552179,None,605.986552179,None,605.986552179,None,604.707070849,605.213516742,604.707070849,605.213516742,604.707070849,605.213516742,None,None,left,1.966732589000003,605.986552179,None,None,None,z,0.6047974890000205,608.01250238,None,608.652210735,None,,,,,,,,,105,32,2022_Sep_08_1203,templeton_exp2A_SD,2020.2.10,37.51564285070233,
,,,,,,,,,,,,,,,,,,,,,,10,0,10,0,,,,,,,,,,,,,,,,,,,,,,,,0.65,0.75,1.25,,,,,,,,,,,,,,,,,,,,,,,,,,,,,,,,,,,10,546.9095428410001,3,9,1,7,0,8,2,6,1,1,1,609.225369806,None,3,4,1,7,0,8,2,6,3,610.438239392,None,610.438239392,None,610.438239392,None,610.438239392,None,610.438239392,None,610.438239392,None,610.438239392,None,610.438239392,None,610.544866937,611.051301766,610.544866937,611.051301766,610.544866937,611.051301766,None,None,down,2.7043895809999867,610.544866937,None,None,None,x,0.9322038460001068,613.317018616,None,614.2767455000001,None,,,,,,,,,105,32,2022_Sep_08_1203,templeton_exp2A_SD,2020.2.10,37.51564285070233,
,,,,,,,,,,,,,,,,,,,,,,11,0,11,0,,,,,,,,,,,,,,,,,,,,,,,,2.05,0.75,2.05,,,,,,,,,,,,,,,,,,,,,,,,,,,,,,,,,,,11,552.533412968,1,6,4,5,0,7,2,8,0,1,0,614.849884096,None,3,6,4,5,0,7,2,8,4,617.448921532,None,617.448921532,None,617.448921532,None,617.448921532,None,617.448921532,None,617.448921532,None,617.448921532,None,617.448921532,None,616.169341859,616.675870622,616.169341859,616.675870622,616.169341859,616.675870622,None,None,left,3.5523617059999424,617.448921532,None,None,None,z,0.7431216880000875,621.074181364,None,621.847216685,None,,,,,,,,,105,32,2022_Sep_08_1203,templeton_exp2A_SD,2020.2.10,37.51564285070233,
,,,,,,,,,,,,,,,,,,,,,,12,0,12,0,,,,,,,,,,,,,,,,,,,,,,,,2.05,0.75,2.05,,,,,,,,,,,,,,,,,,,,,,,,,,,,,,,,,,,12,560.104427485,4,7,2,8,1,6,0,5,0,0,7,622.420313274,None,4,7,2,8,1,6,0,5,0,625.0193847300001,None,625.0193847300001,None,625.0193847300001,None,625.0193847300001,None,625.0193847300001,None,625.0193847300001,None,625.0193847300001,None,625.0193847300001,None,623.7398151680001,624.2463366210001,623.7398151680001,624.2463366210001,623.7398151680001,624.2463366210001,None,None,left,1.1099166249999826,625.0193847300001,None,None,None,c,5.185062239999979,626.192253749,None,631.4169474500001,None,,,,,,,,,105,32,2022_Sep_08_1203,templeton_exp2A_SD,2020.2.10,37.51564285070233,
,,,,,,,,,,,,,,,,,,,,,,13,0,13,0,,,,,,,,,,,,,,,,,,,,,,,,2.05,0.75,2.05,,,,,,,,,,,,,,,,,,,,,,,,,,,,,,,,,,,13,569.673963082,0,5,3,8,2,9,4,6,0,0,4,631.990072862,None,0,5,3,8,2,9,4,6,1,634.589088646,None,634.589088646,None,634.589088646,None,634.589088646,None,634.589088646,None,634.589088646,None,634.589088646,None,634.589088646,None,633.282840472,633.789385518,633.282840472,633.789385518,633.282840472,633.789385518,None,None,down,1.7562224330000618,634.589088646,None,None,None,z,2.735626678000017,636.401685311,None,639.1740141280001,None,,,,,,,,,105,32,2022_Sep_08_1203,templeton_exp2A_SD,2020.2.10,37.51564285070233,
,,,,,,,,,,,,,,,,,,,,,,14,0,14,0,,,,,,,,,,,,,,,,,,,,,,,,2.05,0.75,2.05,,,,,,,,,,,,,,,,,,,,,,,,,,,,,,,,,,,14,577.431072805,1,6,3,7,2,9,0,8,0,1,6,639.747123139,None,1,6,3,7,2,9,4,8,0,642.346131921,None,642.346131921,None,642.346131921,None,642.346131921,None,642.346131921,None,642.346131921,None,642.346131921,None,642.346131921,None,641.039977518,641.5463679650001,641.039977518,641.5463679650001,641.039977518,641.5463679650001,None,None,down,1.73511904399993,642.346131921,None,None,None,z,0.3785477080000419,644.1587540400001,None,644.5853029790001,None,,,,,,,,,105,32,2022_Sep_08_1203,templeton_exp2A_SD,2020.2.10,37.51564285070233,
,,,,,,,,,,,,,,,,,,,,,,15,0,15,0,,,,,,,,,,,,,,,,,,,,,,,,2.05,0.75,2.05,,,,,,,,,,,,,,,,,,,,,,,,,,,,,,,,,,,15,596.939533181,0,5,1,8,3,9,4,6,0,0,5,659.25966127,None,0,5,1,8,3,9,4,6,1,661.858751704,None,661.858751704,None,661.858751704,None,661.858751704,None,661.858751704,None,661.858751704,None,661.858751704,None,661.858751704,None,660.552545709,661.05904285,660.552545709,661.05904285,660.552545709,661.05904285,None,None,down,1.1185292420000224,661.858751704,None,None,None,z,0.9536532900000338,663.031647766,None,664.017882425,None,,,,,,,,,105,32,2022_Sep_08_1203,templeton_exp2A_SD,2020.2.10,37.51564285070233,
,,,,,,,,,,,,,,,,,,,,,,16,0,16,0,,,,,,,,,,,,,,,,,,,,,,,,0.65,0.75,1.25,,,,,,,,,,,,,,,,,,,,,,,,,,,,,,,,,,,16,602.274162459,0,5,4,9,1,6,2,7,1,1,3,664.591051204,None,0,5,4,3,1,6,2,7,1,665.803846182,None,665.803846182,None,665.803846182,None,665.803846182,None,665.803846182,None,665.803846182,None,665.803846182,None,665.803846182,None,665.883857128,666.3903623580001,665.883857128,666.3903623580001,665.883857128,666.3903623580001,None,None,down,0.9574326859999474,665.883857128,None,None,None,x,1.0485018269999955,666.896811676,None,667.989773398,None,,,,,,,,,105,32,2022_Sep_08_1203,templeton_exp2A_SD,2020.2.10,37.51564285070233,
,,,,,,,,,,,,,,,,,,,,,,17,0,17,0,,,,,,,,,,,,,,,,,,,,,,,,0.65,0.75,1.25,,,,,,,,,,,,,,,,,,,,,,,,,,,,,,,,,,,17,606.246396773,0,7,3,9,4,5,1,8,1,1,7,668.562840476,None,0,7,3,9,4,5,1,2,1,669.775742828,None,669.775742828,None,669.775742828,None,669.775742828,None,669.775742828,None,669.775742828,None,669.775742828,None,669.775742828,None,669.855714677,670.3621963100001,669.855714677,670.3621963100001,669.855714677,670.3621963100001,None,None,down,1.0255364760000703,669.855714677,None,None,None,x,0.9167119720000301,670.948628125,None,671.908271914,None,,,,,,,,,105,32,2022_Sep_08_1203,templeton_exp2A_SD,2020.2.10,37.51564285070233,
,,,,,,,,,,,,,,,,,,,,,,18,0,18,0,,,,,,,,,,,,,,,,,,,,,,,,2.05,0.75,2.05,,,,,,,,,,,,,,,,,,,,,,,,,,,,,,,,,,,18,610.164478812,0,7,3,5,2,6,4,9,0,0,1,672.481377714,None,0,7,3,5,2,6,4,9,0,675.08042076,None,675.08042076,None,675.08042076,None,675.08042076,None,675.08042076,None,675.08042076,None,675.08042076,None,675.08042076,None,673.774227325,674.280674072,673.774227325,674.280674072,673.774227325,674.280674072,None,None,left,1.184876743000018,675.08042076,None,None,None,z,0.7080189299999802,676.33329455,None,677.079639779,None,,,,,,,,,105,32,2022_Sep_08_1203,templeton_exp2A_SD,2020.2.10,37.51564285070233,
,,,,,,,,,,,,,,,,,,,,,,19,0,19,0,,,,,,,,,,,,,,,,,,,,,,,,2.05,0.75,2.05,,,,,,,,,,,,,,,,,,,,,,,,,,,,,,,,,,,19,615.337438277,2,7,0,6,3,8,1,9,0,0,6,677.6527203200001,None,2,7,0,6,3,8,1,9,1,680.251745205,None,680.251745205,None,680.251745205,None,680.251745205,None,680.251745205,None,680.251745205,None,680.251745205,None,680.251745205,None,678.972264828,679.478731787,678.972264828,679.478731787,678.972264828,679.478731787,None,None,down,0.9334496679999802,680.251745205,None,None,None,z,0.23266219100003127,681.264652804,None,681.531258725,None,,,,,,,,,105,32,2022_Sep_08_1203,templeton_exp2A_SD,2020.2.10,37.51564285070233,
,,,,,,,,,,,,,,,,,,,,,,20,0,20,0,,,,,,,,,,,,,,,,,,,,,,,,2.05,0.75,2.05,,,,,,,,,,,,,,,,,,,,,,,,,,,,,,,,,,,20,619.787470494,4,9,2,7,0,6,3,5,0,1,1,682.1044151890001,None,4,1,2,7,0,6,3,5,0,684.703441472,None,684.703441472,None,684.703441472,None,684.703441472,None,684.703441472,None,684.703441472,None,684.703441472,None,684.703441472,None,683.397196548,683.90372354,683.397196548,683.90372354,683.397196548,683.90372354,None,None,down,0.9538396829999556,684.703441472,None,None,None,x,0.6689626819999148,685.716339358,None,686.436070978,None,,,,,,,,,105,32,2022_Sep_08_1203,templeton_exp2A_SD,2020.2.10,37.51564285070233,
,,,,,,,,,,,,,,,,,,,,,,21,0,21,0,,,,,,,,,,,,,,,,,,,,,,,,0.65,0.75,1.25,,,,,,,,,,,,,,,,,,,,,,,,,,,,,,,,,,,21,624.692867882,4,7,0,5,2,6,3,8,1,1,1,687.009230749,None,4,1,0,5,2,6,3,8,0,688.222102595,None,688.222102595,None,688.222102595,None,688.222102595,None,688.222102595,None,688.222102595,None,688.222102595,None,688.222102595,None,688.328729699,688.8351844680001,688.328729699,688.8351844680001,688.328729699,688.8351844680001,None,None,down,1.2405277650000244,688.328729699,None,None,None,z,0.28648009800008367,689.634859577,None,689.9547368809999,None,,,,,,,,,105,32,2022_Sep_08_1203,templeton_exp2A_SD,2020.2.10,37.51564285070233,
,,,,,,,,,,,,,,,,,,,,,,22,0,22,0,,,,,,,,,,,,,,,,,,,,,,,,0.65,0.75,1.25,,,,,,,,,,,,,,,,,,,,,,,,,,,,,,,,,,,22,628.212165921,3,7,0,6,2,8,4,5,1,0,7,690.5279005770001,None,3,7,0,6,2,8,4,5,0,691.74071432,None,691.74071432,None,691.74071432,None,691.74071432,None,691.74071432,None,691.74071432,None,691.74071432,None,691.74071432,None,691.847392337,692.353825269,691.847392337,692.353825269,691.847392337,692.353825269,None,None,down,1.1459043899999415,691.847392337,None,None,None,z,0.21042631099999198,693.0468832490001,None,693.2868452519999,None,,,,,,,,,105,32,2022_Sep_08_1203,templeton_exp2A_SD,2020.2.10,37.51564285070233,
,,,,,,,,,,,,,,,,,,,,,,23,0,23,0,,,,,,,,,,,,,,,,,,,,,,,,0.65,0.75,1.25,,,,,,,,,,,,,,,,,,,,,,,,,,,,,,,,,,,23,631.5442485670001,3,6,2,5,4,8,0,7,1,0,4,693.859910467,None,3,6,2,5,4,8,0,7,0,695.072832223,None,695.072832223,None,695.072832223,None,695.072832223,None,695.072832223,None,695.072832223,None,695.072832223,None,695.072832223,None,695.1794239800001,695.685901216,695.1794239800001,695.685901216,695.1794239800001,695.685901216,None,None,down,1.3819046759999765,695.1794239800001,None,None,None,x,0.20643317500002922,696.6188783719999,None,696.8588194870001,None,,,,,,,,,105,32,2022_Sep_08_1203,templeton_exp2A_SD,2020.2.10,37.51564285070233,
,,,,,,,,,,,,,,,,,,,,,,24,0,24,0,,,,,,,,,,,,,,,,,,,,,,,,0.65,0.75,1.25,,,,,,,,,,,,,,,,,,,,,,,,,,,,,,,,,,,24,635.11585507,2,7,0,9,1,6,3,8,1,0,5,697.4319523209999,None,2,7,0,9,1,6,3,8,0,698.6448142930001,None,698.6448142930001,None,698.6448142930001,None,698.6448142930001,None,698.6448142930001,None,698.6448142930001,None,698.6448142930001,None,698.6448142930001,None,698.751403453,699.257903343,698.751403453,699.257903343,698.751403453,699.257903343,None,None,down,1.1699025430000347,698.751403453,None,None,None,z,0.09567906699999185,699.9776321869999,None,700.1109111170001,None,,,,,,,,,105,32,2022_Sep_08_1203,templeton_exp2A_SD,2020.2.10,37.51564285070233,
,,,,,,,,,,,,,,,,,,,,,,25,0,25,0,,,,,,,,,,,,,,,,,,,,,,,,2.05,0.75,2.05,,,,,,,,,,,,,,,,,,,,,,,,,,,,,,,,,,,25,638.367632057,1,8,0,5,2,6,4,9,0,0,4,700.6839876619999,None,1,8,0,5,2,6,4,9,1,703.283011388,None,703.283011388,None,703.283011388,None,703.283011388,None,703.283011388,None,703.283011388,None,703.283011388,None,703.283011388,None,701.9768885440001,702.4833110530001,701.9768885440001,702.4833110530001,701.9768885440001,702.4833110530001,None,None,down,0.83828464599992,703.283011388,None,None,None,z,0.11593509599993013,704.189377964,None,704.349244878,None,,,,,,,,,105,32,2022_Sep_08_1203,templeton_exp2A_SD,2020.2.10,37.51564285070233,
,,,,,,,,,,,,,,,,,,,,,,26,0,26,0,,,,,,,,,,,,,,,,,,,,,,,,0.65,0.75,1.25,,,,,,,,,,,,,,,,,,,,,,,,,,,,,,,,,,,26,642.6063777500001,2,7,3,8,1,9,0,5,1,0,7,704.922330288,None,2,7,3,8,1,9,0,5,1,706.135288792,None,706.135288792,None,706.135288792,None,706.135288792,None,706.135288792,None,706.135288792,None,706.135288792,None,706.135288792,None,706.241885333,706.7483386490001,706.241885333,706.7483386490001,706.241885333,706.7483386490001,None,None,down,1.0714085889999296,706.241885333,None,None,None,z,0.14917575899994517,707.3881299120001,None,707.5747629079999,None,,,,,,,,,105,32,2022_Sep_08_1203,templeton_exp2A_SD,2020.2.10,37.51564285070233,
,,,,,,,,,,,,,,,,,,,,,,27,0,27,0,,,,,,,,,,,,,,,,,,,,,,,,2.05,0.75,2.05,,,,,,,,,,,,,,,,,,,,,,,,,,,,,,,,,,,27,645.831375067,2,7,3,8,0,5,1,9,0,1,2,708.147789334,None,2,7,4,8,0,5,1,9,2,710.746853892,None,710.746853892,None,710.746853892,None,710.746853892,None,710.746853892,None,710.746853892,None,710.746853892,None,710.746853892,None,709.467310663,709.973849295,709.467310663,709.973849295,709.467310663,709.973849295,None,None,left,1.142445189,710.746853892,None,None,None,z,0.20687360100009755,711.946436233,None,712.186310372,None,,,,,,,,,105,32,2022_Sep_08_1203,templeton_exp2A_SD,2020.2.10,37.51564285070233,
,,,,,,,,,,,,,,,,,,,,,,28,0,28,0,,,,,,,,,,,,,,,,,,,,,,,,2.05,0.75,2.05,,,,,,,,,,,,,,,,,,,,,,,,,,,,,,,,,,,28,650.443021676,0,6,2,8,4,9,1,7,0,0,4,712.75948103,None,0,6,2,8,4,9,1,7,3,715.358433335,None,715.358433335,None,715.358433335,None,715.358433335,None,715.358433335,None,715.358433335,None,715.358433335,None,715.358433335,None,714.078991055,714.585400335,714.078991055,714.585400335,714.078991055,714.585400335,None,None,down,1.3228877110000212,715.358433335,None,None,None,x,0.1446686920000957,716.7446286090001,None,716.9311673520001,None,,,,,,,,,105,32,2022_Sep_08_1203,templeton_exp2A_SD,2020.2.10,37.51564285070233,
,,,,,,,,,,,,,,,,,,,,,,29,0,29,0,,,,,,,,,,,,,,,,,,,,,,,,0.65,0.75,1.25,,,,,,,,,,,,,,,,,,,,,,,,,,,,,,,,,,,29,655.188430835,2,6,3,8,0,9,1,7,1,0,1,717.504330813,None,2,6,3,8,0,9,1,7,3,718.7171692920001,None,718.7171692920001,None,718.7171692920001,None,718.7171692920001,None,718.7171692920001,None,718.7171692920001,None,718.7171692920001,None,718.7171692920001,None,718.8238382510001,719.330267754,718.8238382510001,719.330267754,718.8238382510001,719.330267754,None,None,down,1.8254579039999044,718.8238382510001,None,None,None,z,0.1888440380000702,720.716459016,None,720.9563235160001,None,,,,,,,,,105,32,2022_Sep_08_1203,templeton_exp2A_SD,2020.2.10,37.51564285070233,
,,,,,,,,,,,,,,,,,,,,,,30,0,30,0,,,,,,,,,,,,,,,,,,,,,,,,2.05,0.75,2.05,,,,,,,,,,,,,,,,,,,,,,,,,,,,,,,,,,,30,662.7148415060001,3,7,1,9,2,8,0,5,0,1,0,725.03477864,None,4,7,1,9,2,8,0,5,4,727.633792271,None,727.633792271,None,727.633792271,None,727.633792271,None,727.633792271,None,727.633792271,None,727.633792271,None,727.633792271,None,726.3276571389999,726.8340513549999,726.3276571389999,726.8340513549999,726.3276571389999,726.8340513549999,None,None,left,1.6395025259998874,727.633792271,None,None,None,z,0.6054596920000677,729.3398520370001,None,729.9796243370001,None,,,,,,,,,105,32,2022_Sep_08_1203,templeton_exp2A_SD,2020.2.10,37.51564285070233,
,,,,,,,,,,,,,,,,,,,,,,31,0,31,0,,,,,,,,,,,,,,,,,,,,,,,,2.05,0.75,2.05,,,,,,,,,,,,,,,,,,,,,,,,,,,,,,,,,,,31,668.2369044280001,2,8,1,6,3,5,0,9,0,1,1,730.552742884,None,2,4,1,6,3,5,0,9,5,733.1517010740001,None,733.1517010740001,None,733.1517010740001,None,733.1517010740001,None,733.1517010740001,None,733.1517010740001,None,733.1517010740001,None,733.1517010740001,None,731.8455736220001,732.351984143,731.8455736220001,732.351984143,731.8455736220001,732.351984143,None,None,left,1.3615926310001214,733.1517010740001,None,None,None,z,0.2260715939999045,734.591192009,None,734.8577337290001,None,,,,,,,,,105,32,2022_Sep_08_1203,templeton_exp2A_SD,2020.2.10,37.51564285070233,
,,,,,,,,,,,,,,,,,,,,,,32,0,32,0,,,,,,,,,,,,,,,,,,,,,,,,0.65,0.75,1.25,,,,,,,,,,,,,,,,,,,,,,,,,,,,,,,,,,,32,673.1137930499999,2,6,3,5,1,9,0,7,1,0,4,735.4308461850001,None,2,6,3,5,1,9,0,7,5,736.6437422010001,None,736.6437422010001,None,736.6437422010001,None,736.6437422010001,None,736.6437422010001,None,736.6437422010001,None,736.6437422010001,None,736.6437422010001,None,736.7236607560001,737.2301824680001,736.7236607560001,737.2301824680001,736.7236607560001,737.2301824680001,None,None,down,2.4056429800000387,736.7236607560001,None,None,None,z,0.49461856199991416,739.202693753,None,739.7358604230001,None,,,,,,,,,105,32,2022_Sep_08_1203,templeton_exp2A_SD,2020.2.10,37.51564285070233,
,,,,,,,,,,,,,,,,,,,,,,33,0,33,0,,,,,,,,,,,,,,,,,,,,,,,,2.05,0.75,2.05,,,,,,,,,,,,,,,,,,,,,,,,,,,,,,,,,,,33,677.9928623590001,4,8,2,6,1,9,0,5,0,0,5,740.309017949,None,4,8,2,6,1,9,0,5,6,742.908005066,None,742.908005066,None,742.908005066,None,742.908005066,None,742.908005066,None,742.908005066,None,742.908005066,None,742.908005066,None,741.6018347900001,742.108294768,741.6018347900001,742.108294768,741.6018347900001,742.108294768,None,None,down,1.229286348000187,742.908005066,None,None,None,x,0.39516159300001164,744.214151331,None,744.64071491,None,,,,,,,,,105,32,2022_Sep_08_1203,templeton_exp2A_SD,2020.2.10,37.51564285070233,
,,,,,,,,,,,,,,,,,,,,,,34,0,34,0,,,,,,,,,,,,,,,,,,,,,,,,2.05,0.75,2.05,,,,,,,,,,,,,,,,,,,,,,,,,,,,,,,,,,,34,682.897597877,4,8,2,6,3,9,1,7,0,1,1,745.21375078,None,4,0,2,6,3,9,1,7,0,747.81283037,None,747.81283037,None,747.81283037,None,747.81283037,None,747.81283037,None,747.81283037,None,747.81283037,None,747.81283037,None,746.506665393,747.013072381,746.506665393,747.013072381,746.506665393,747.013072381,None,None,down,1.652454594000119,747.81283037,None,None,None,z,0.34641381999995247,749.518869477,None,749.8920259829999,None,,,,,,,,,105,32,2022_Sep_08_1203,templeton_exp2A_SD,2020.2.10,37.51564285070233,
,,,,,,,,,,,,,,,,,,,,,,35,0,35,0,,,,,,,,,,,,,,,,,,,,,,,,2.05,0.75,2.05,,,,,,,,,,,,,,,,,,,,,,,,,,,,,,,,,,,35,688.1493748590001,2,6,4,7,1,8,0,9,0,1,4,750.465135267,None,2,6,4,7,3,8,0,9,0,753.0641584330001,None,753.0641584330001,None,753.0641584330001,None,753.0641584330001,None,753.0641584330001,None,753.0641584330001,None,753.0641584330001,None,753.0641584330001,None,751.784667825,752.291123836,751.784667825,752.291123836,751.784667825,752.291123836,None,None,down,1.8251624510000966,753.0641584330001,None,None,None,x,0.17247527599988643,754.956807974,None,755.1700039070001,None,,,,,,,,,105,32,2022_Sep_08_1203,templeton_exp2A_SD,2020.2.10,37.51564285070233,
,,,,,,,,,,,,,,,,,,,,,,36,0,36,0,,,,,,,,,,,,,,,,,,,,,,,,2.05,0.75,2.05,,,,,,,,,,,,,,,,,,,,,,,,,,,,,,,,,,,36,693.4270287649999,3,8,4,5,0,7,2,9,0,0,6,755.7431798800001,None,3,8,4,5,0,7,2,9,0,758.3421989430001,None,758.3421989430001,None,758.3421989430001,None,758.3421989430001,None,758.3421989430001,None,758.3421989430001,None,758.3421989430001,None,758.3421989430001,None,757.0359858040001,757.542496198,757.0359858040001,757.542496198,757.0359858040001,757.542496198,None,None,left,2.083087145999798,758.3421989430001,None,None,None,z,0.21193382999990718,760.50137802,None,760.7412953800001,None,,,,,,,,,105,32,2022_Sep_08_1203,templeton_exp2A_SD,2020.2.10,37.51564285070233,
,,,,,,,,,,,,,,,,,,,,,,37,0,37,0,,,,,,,,,,,,,,,,,,,,,,,,0.65,0.75,1.25,,,,,,,,,,,,,,,,,,,,,,,,,,,,,,,,,,,37,698.9979240750001,4,5,3,8,2,6,0,7,1,0,0,761.314308231,None,4,5,3,8,2,6,0,7,0,762.5272805090001,None,762.5272805090001,None,762.5272805090001,None,762.5272805090001,None,762.5272805090001,None,762.5272805090001,None,762.5272805090001,None,762.5272805090001,None,762.6338440229999,763.1403647910001,762.6338440229999,763.1403647910001,762.6338440229999,763.1403647910001,None,None,down,1.2794627050000145,762.6338440229999,None,None,None,x,0.2026900260000275,763.9666637729999,None,764.2066401659999,None,,,,,,,,,105,32,2022_Sep_08_1203,templeton_exp2A_SD,2020.2.10,37.51564285070233,
,,,,,,,,,,,,,,,,,,,,,,38,0,38,0,,,,,,,,,,,,,,,,,,,,,,,,0.65,0.75,1.25,,,,,,,,,,,,,,,,,,,,,,,,,,,,,,,,,,,38,702.463719159,4,8,0,5,1,7,3,9,1,0,4,764.779786092,None,4,8,0,5,1,7,3,9,0,765.992619588,None,765.992619588,None,765.992619588,None,765.992619588,None,765.992619588,None,765.992619588,None,765.992619588,None,765.992619588,None,766.0725928510001,766.579082924,766.0725928510001,766.579082924,766.0725928510001,766.579082924,None,None,down,0.9606027359998279,766.0725928510001,None,None,None,z,0.17710148700007267,767.112208149,None,767.3254513530001,None,,,,,,,,,105,32,2022_Sep_08_1203,templeton_exp2A_SD,2020.2.10,37.51564285070233,
,,,,,,,,,,,,,,,,,,,,,,39,0,39,0,,,,,,,,,,,,,,,,,,,,,,,,2.05,0.75,2.05,,,,,,,,,,,,,,,,,,,,,,,,,,,,,,,,,,,39,705.582603474,3,5,4,6,2,7,0,8,0,1,2,767.898531933,None,3,5,1,6,2,7,0,8,1,770.497614265,None,770.497614265,None,770.497614265,None,770.497614265,None,770.497614265,None,770.497614265,None,770.497614265,None,770.497614265,None,769.218037743,769.724487295,769.218037743,769.724487295,769.218037743,769.724487295,None,None,left,1.727684556999975,770.497614265,None,None,None,z,0.2298191070001394,772.28349278,None,772.550173283,None,,,,,,,,,105,32,2022_Sep_08_1203,templeton_exp2A_SD,2020.2.10,37.51564285070233,
,,,,,,,,,,,,,,,,,,,,,,40,0,40,0,,,,,,,,,,,,,,,,,,,,,,,,0.65,0.75,1.25,,,,,,,,,,,,,,,,,,,,,,,,,,,,,,,,,,,40,710.806986974,1,5,3,7,4,6,2,8,1,1,2,773.123252972,None,1,5,0,7,4,6,2,8,1,774.336094047,None,774.336094047,None,774.336094047,None,774.336094047,None,774.336094047,None,774.336094047,None,774.336094047,None,774.336094047,None,774.442750401,774.949160309,774.442750401,774.949160309,774.442750401,774.949160309,None,None,down,2.462545013999943,774.442750401,None,None,None,x,0.37817310900004486,776.9751291590001,None,777.40158602,None,,,,,,,,,105,32,2022_Sep_08_1203,templeton_exp2A_SD,2020.2.10,37.51564285070233,
,,,,,,,,,,,,,,,,,,,,,,41,0,41,0,,,,,,,,,,,,,,,,,,,,,,,,0.65,0.75,1.25,,,,,,,,,,,,,,,,,,,,,,,,,,,,,,,,,,,41,715.6585858139999,0,5,1,9,4,6,3,8,1,0,0,777.974621478,None,0,5,1,9,4,6,3,8,1,779.1876509670001,None,779.1876509670001,None,779.1876509670001,None,779.1876509670001,None,779.1876509670001,None,779.1876509670001,None,779.1876509670001,None,779.1876509670001,None,779.2675614899999,779.7740739010001,779.2675614899999,779.7740739010001,779.2675614899999,779.7740739010001,None,None,down,2.6857435140000234,779.2675614899999,None,None,None,x,0.5401398659998904,782.0131766280001,None,782.5995905340001,None,,,,,,,,,105,32,2022_Sep_08_1203,templeton_exp2A_SD,2020.2.10,37.51564285070233,
,,,,,,,,,,,,,,,,,,,,,,42,0,42,0,,,,,,,,,,,,,,,,,,,,,,,,0.65,0.75,1.25,,,,,,,,,,,,,,,,,,,,,,,,,,,,,,,,,,,42,720.856666806,2,8,3,5,1,6,0,9,1,1,5,783.1727926610001,None,2,8,3,5,1,4,0,9,1,784.385617507,None,784.385617507,None,784.385617507,None,784.385617507,None,784.385617507,None,784.385617507,None,784.385617507,None,784.385617507,None,784.492288599,784.998682675,784.492288599,784.998682675,784.492288599,784.998682675,None,None,down,1.4129062030001478,784.492288599,None,None,None,z,0.12030169800004842,785.985016158,None,786.145004946,None,,,,,,,,,105,32,2022_Sep_08_1203,templeton_exp2A_SD,2020.2.10,37.51564285070233,
,,,,,,,,,,,,,,,,,,,,,,43,0,43,0,,,,,,,,,,,,,,,,,,,,,,,,0.65,0.75,1.25,,,,,,,,,,,,,,,,,,,,,,,,,,,,,,,,,,,43,724.4020950920001,3,6,0,7,4,8,1,5,1,1,3,786.7180573,None,3,6,0,2,4,8,1,5,1,787.931001275,None,787.931001275,None,787.931001275,None,787.931001275,None,787.931001275,None,787.931001275,None,787.931001275,None,787.931001275,None,788.0375976780001,788.5440790540001,788.0375976780001,788.5440790540001,788.0375976780001,788.5440790540001,None,None,down,1.6997310420001668,788.0375976780001,None,None,None,x,0.11635950400000183,789.7969523290001,None,789.956846159,None,,,,,,,,,105,32,2022_Sep_08_1203,templeton_exp2A_SD,2020.2.10,37.51564285070233,
,,,,,,,,,,,,,,,,,,,,,,44,0,44,0,,,,,,,,,,,,,,,,,,,,,,,,0.65,0.75,1.25,,,,,,,,,,,,,,,,,,,,,,,,,,,,,,,,,,,44,728.213649755,4,9,3,8,1,5,2,7,1,0,5,790.529961315,None,4,9,3,8,1,5,2,7,1,791.742874501,None,791.742874501,None,791.742874501,None,791.742874501,None,791.742874501,None,791.742874501,None,791.742874501,None,791.742874501,None,791.8494590949999,792.355976565,791.8494590949999,792.355976565,791.8494590949999,792.355976565,None,None,down,1.1838356869998279,791.8494590949999,None,None,None,z,0.17900322000014057,793.1023071920001,None,793.3155615570001,None,,,,,,,,,105,32,2022_Sep_08_1203,templeton_exp2A_SD,2020.2.10,37.51564285070233,
,,,,,,,,,,,,,,,,,,,,,,45,0,45,0,,,,,,,,,,,,,,,,,,,,,,,,0.65,0.75,1.25,,,,,,,,,,,,,,,,,,,,,,,,,,,,,,,,,,,45,734.3284099310001,0,9,1,5,3,8,4,7,1,0,7,796.647598837,None,0,9,1,5,3,8,4,7,1,797.8605445200001,None,797.8605445200001,None,797.8605445200001,None,797.8605445200001,None,797.8605445200001,None,797.8605445200001,None,797.8605445200001,None,797.8605445200001,None,797.940520478,798.446895482,797.940520478,798.446895482,797.940520478,798.446895482,None,None,left,1.3807733150001695,797.940520478,None,None,None,x,0.20536512600006063,799.379938344,None,799.6198504870001,None,,,,,,,,,105,32,2022_Sep_08_1203,templeton_exp2A_SD,2020.2.10,37.51564285070233,
,,,,,,,,,,,,,,,,,,,,,,46,0,46,0,,,,,,,,,,,,,,,,,,,,,,,,0.65,0.75,1.25,,,,,,,,,,,,,,,,,,,,,,,,,,,,,,,,,,,46,737.8760676080001,0,7,1,9,4,5,3,6,1,0,7,800.1929970880001,None,0,7,1,9,4,5,3,6,1,801.4058796439999,None,801.4058796439999,None,801.4058796439999,None,801.4058796439999,None,801.4058796439999,None,801.4058796439999,None,801.4058796439999,None,801.4058796439999,None,801.4858073089999,801.99231229,801.4858073089999,801.99231229,801.4858073089999,801.99231229,None,None,down,1.2114984319998712,801.4858073089999,None,None,None,z,0.1480155140000079,802.765297103,None,802.9518865069999,None,,,,,,,,,105,32,2022_Sep_08_1203,templeton_exp2A_SD,2020.2.10,37.51564285070233,
,,,,,,,,,,,,,,,,,,,,,,47,0,47,0,,,,,,,,,,,,,,,,,,,,,,,,2.05,0.75,2.05,,,,,,,,,,,,,,,,,,,,,,,,,,,,,,,,,,,47,741.207915387,3,9,4,7,0,6,2,5,0,0,1,803.5250587339999,None,3,9,4,7,0,6,2,5,2,806.1240098160001,None,806.1240098160001,None,806.1240098160001,None,806.1240098160001,None,806.1240098160001,None,806.1240098160001,None,806.1240098160001,None,806.1240098160001,None,804.817880417,805.324377813,804.817880417,805.324377813,804.817880417,805.324377813,None,None,down,1.6132922409999537,806.1240098160001,None,None,None,x,0.06986040600008891,807.803451434,None,807.9100264650001,None,,,,,,,,,105,32,2022_Sep_08_1203,templeton_exp2A_SD,2020.2.10,37.51564285070233,
,,,,,,,,,,,,,,,,,,,,,,48,0,48,0,,,,,,,,,,,,,,,,,,,,,,,,0.65,0.75,1.25,,,,,,,,,,,,,,,,,,,,,,,,,,,,,,,,,,,48,746.1670942989999,4,9,0,8,2,6,3,7,1,1,3,808.4830887600001,None,4,9,0,1,2,6,3,7,2,809.6960699379999,None,809.6960699379999,None,809.6960699379999,None,809.6960699379999,None,809.6960699379999,None,809.6960699379999,None,809.6960699379999,None,809.6960699379999,None,809.776036165,810.282526172,809.776036165,810.282526172,809.776036165,810.282526172,None,None,down,0.9052691990000312,809.776036165,None,None,None,x,0.08160951800005023,810.7356653270001,None,810.868905733,None,,,,,,,,,105,32,2022_Sep_08_1203,templeton_exp2A_SD,2020.2.10,37.51564285070233,
,,,,,,,,,,,,,,,,,,,,,,49,0,49,0,,,,,,,,,,,,,,,,,,,,,,,,0.65,0.75,1.25,,,,,,,,,,,,,,,,,,,,,,,,,,,,,,,,,,,49,749.125113931,4,6,1,5,2,8,3,9,1,1,6,811.44207067,None,4,6,1,5,2,8,0,9,2,812.654942591,None,812.654942591,None,812.654942591,None,812.654942591,None,812.654942591,None,812.654942591,None,812.654942591,None,812.654942591,None,812.734841216,813.2414090770001,812.734841216,813.2414090770001,812.734841216,813.2414090770001,None,None,down,1.1144513530000495,812.734841216,None,None,None,x,0.04559007000011661,813.9077245139999,None,813.987775697,None,,,,,,,,,105,32,2022_Sep_08_1203,templeton_exp2A_SD,2020.2.10,37.51564285070233,
,,,,,,,,,,,,,,,,,,,,,,50,0,50,0,,,,,,,,,,,,,,,,,,,,,,,,2.05,0.75,2.05,,,,,,,,,,,,,,,,,,,,,,,,,,,,,,,,,,,50,752.2451602660001,0,8,3,9,1,7,2,6,0,0,3,814.560898661,None,0,8,3,9,1,7,2,6,3,817.1599010320001,None,817.1599010320001,None,817.1599010320001,None,817.1599010320001,None,817.1599010320001,None,817.1599010320001,None,817.1599010320001,None,817.1599010320001,None,815.8804131490001,816.3868280439999,815.8804131490001,816.3868280439999,815.8804131490001,816.3868280439999,None,None,down,0.9055005299999266,817.1599010320001,None,None,None,z,0.15376202800007377,818.1195367980001,None,818.3061339850001,None,,,,,,,,,105,32,2022_Sep_08_1203,templeton_exp2A_SD,2020.2.10,37.51564285070233,
,,,,,,,,,,,,,,,,,,,,,,51,0,51,0,,,,,,,,,,,,,,,,,,,,,,,,0.65,0.75,1.25,,,,,,,,,,,,,,,,,,,,,,,,,,,,,,,,,,,51,756.5625019240001,3,6,0,8,4,5,1,9,1,1,4,818.8792766839999,None,3,6,0,8,2,5,1,9,3,820.09211798,None,820.09211798,None,820.09211798,None,820.09211798,None,820.09211798,None,820.09211798,None,820.09211798,None,820.09211798,None,820.1720944159999,820.67857768,820.1720944159999,820.67857768,820.1720944159999,820.67857768,None,None,down,1.9972006769999098,820.1720944159999,None,None,None,x,0.8486809440000798,822.2246500450001,None,823.1043152940001,None,,,,,,,,,105,32,2022_Sep_08_1203,templeton_exp2A_SD,2020.2.10,37.51564285070233,
,,,,,,,,,,,,,,,,,,,,,,52,0,52,0,,,,,,,,,,,,,,,,,,,,,,,,0.65,0.75,1.25,,,,,,,,,,,,,,,,,,,,,,,,,,,,,,,,,,,52,761.361444443,3,7,2,6,4,8,0,9,1,1,1,823.677449815,None,3,1,2,6,4,8,0,9,3,824.8903161830001,None,824.8903161830001,None,824.8903161830001,None,824.8903161830001,None,824.8903161830001,None,824.8903161830001,None,824.8903161830001,None,824.8903161830001,None,824.9968984330001,825.5033753820001,824.9968984330001,825.5033753820001,824.9968984330001,825.5033753820001,None,None,down,0.7723883690000548,824.9968984330001,None,None,None,z,0.08198381800002608,825.8232819709999,None,825.956536058,None,,,,,,,,,105,32,2022_Sep_08_1203,templeton_exp2A_SD,2020.2.10,37.51564285070233,
,,,,,,,,,,,,,,,,,,,,,,53,0,53,0,,,,,,,,,,,,,,,,,,,,,,,,2.05,0.75,2.05,,,,,,,,,,,,,,,,,,,,,,,,,,,,,,,,,,,53,764.2134298379999,0,7,1,5,2,8,4,9,0,0,2,826.5297064010001,None,0,7,1,5,2,8,4,9,4,829.12871208,None,829.12871208,None,829.12871208,None,829.12871208,None,829.12871208,None,829.12871208,None,829.12871208,None,829.12871208,None,827.8491449370001,828.3556618150001,827.8491449370001,828.3556618150001,827.8491449370001,828.3556618150001,None,None,down,0.6245875960000831,829.12871208,None,None,None,z,0.13157953800009636,829.821771103,None,829.9816538540001,None,,,,,,,,,105,32,2022_Sep_08_1203,templeton_exp2A_SD,2020.2.10,37.51564285070233,
,,,,,,,,,,,,,,,,,,,,,,54,0,54,0,,,,,,,,,,,,,,,,,,,,,,,,0.65,0.75,1.25,,,,,,,,,,,,,,,,,,,,,,,,,,,,,,,,,,,54,768.2391601229999,1,8,0,5,4,6,3,7,1,0,1,830.5548332139999,None,1,8,0,5,4,6,3,7,4,831.76766769,None,831.76766769,None,831.76766769,None,831.76766769,None,831.76766769,None,831.76766769,None,831.76766769,None,831.76766769,None,831.874335101,832.3807640770001,831.874335101,832.3807640770001,831.874335101,832.3807640770001,None,None,down,3.0789793260000806,831.874335101,None,None,None,x,0.41352630400001544,835.019794456,None,835.472964521,None,,,,,,,,,105,32,2022_Sep_08_1203,templeton_exp2A_SD,2020.2.10,37.51564285070233,
,,,,,,,,,,,,,,,,,,,,,,55,0,55,0,,,,,,,,,,,,,,,,,,,,,,,,0.65,0.75,1.25,,,,,,,,,,,,,,,,,,,,,,,,,,,,,,,,,,,55,773.7301897070001,0,9,2,8,1,6,4,7,1,1,3,836.0460913730001,None,0,9,2,3,1,6,4,7,4,837.2456516710001,None,837.2456516710001,None,837.2456516710001,None,837.2456516710001,None,837.2456516710001,None,837.2456516710001,None,837.2456516710001,None,837.2456516710001,None,837.352218069,837.8587256579999,837.352218069,837.8587256579999,837.352218069,837.8587256579999,None,None,down,1.6490763489998699,837.352218069,None,None,None,x,0.15109014100016793,839.05822472,None,839.244880536,None,,,,,,,,,105,32,2022_Sep_08_1203,templeton_exp2A_SD,2020.2.10,37.51564285070233,
,,,,,,,,,,,,,,,,,,,,,,56,0,56,0,,,,,,,,,,,,,,,,,,,,,,,,2.05,0.75,2.05,,,,,,,,,,,,,,,,,,,,,,,,,,,,,,,,,,,56,777.5021483200001,3,5,2,6,0,8,1,7,0,0,5,839.8179488630001,None,3,5,2,6,0,8,1,7,5,842.416963805,None,842.416963805,None,842.416963805,None,842.416963805,None,842.416963805,None,842.416963805,None,842.416963805,None,842.416963805,None,841.13748491,841.6439266730001,841.13748491,841.6439266730001,841.13748491,841.6439266730001,None,None,down,0.6643319909999263,842.416963805,None,None,None,z,0.02458532700006799,843.1367285030001,None,843.190003118,None,,,,,,,,,105,32,2022_Sep_08_1203,templeton_exp2A_SD,2020.2.10,37.51564285070233,
,,,,,,,,,,,,,,,,,,,,,,57,0,57,0,,,,,,,,,,,,,,,,,,,,,,,,2.05,0.75,2.05,,,,,,,,,,,,,,,,,,,,,,,,,,,,,,,,,,,57,781.4466760790001,1,6,3,5,2,7,0,9,0,0,1,843.7631888569999,None,1,6,3,5,2,7,0,9,6,846.3621711549999,None,846.3621711549999,None,846.3621711549999,None,846.3621711549999,None,846.3621711549999,None,846.3621711549999,None,846.3621711549999,None,846.3621711549999,None,845.056004091,845.5623957330001,845.056004091,845.5623957330001,845.056004091,845.5623957330001,None,None,down,0.8871245009997892,846.3621711549999,None,None,None,x,0.4235304080000333,847.321782446,None,847.7749686290001,None,,,,,,,,,105,32,2022_Sep_08_1203,templeton_exp2A_SD,2020.2.10,37.51564285070233,
,,,,,,,,,,,,,,,,,,,,,,58,0,58,0,,,,,,,,,,,,,,,,,,,,,,,,2.05,0.75,2.05,,,,,,,,,,,,,,,,,,,,,,,,,,,,,,,,,,,58,786.03217681,4,9,1,8,0,6,2,7,0,0,4,848.348088081,None,4,9,1,8,0,6,2,7,7,850.9470199909999,None,850.9470199909999,None,850.9470199909999,None,850.9470199909999,None,850.9470199909999,None,850.9470199909999,None,850.9470199909999,None,850.9470199909999,None,849.6675851550001,850.174130118,849.6675851550001,850.174130118,849.6675851550001,850.174130118,None,None,down,0.9582781720000639,850.9470199909999,None,None,None,z,0.21725204699987444,851.960047514,None,852.22651118,None,,,,,,,,,105,32,2022_Sep_08_1203,templeton_exp2A_SD,2020.2.10,37.51564285070233,
,,,,,,,,,,,,,,,,,,,,,,59,0,59,0,,,,,,,,,,,,,,,,,,,,,,,,2.05,0.75,2.05,,,,,,,,,,,,,,,,,,,,,,,,,,,,,,,,,,,59,790.483434431,0,6,3,5,2,8,4,7,0,1,1,852.7997454460001,None,0,1,3,5,2,8,4,7,8,855.398752371,None,855.398752371,None,855.398752371,None,855.398752371,None,855.398752371,None,855.398752371,None,855.398752371,None,855.398752371,None,854.1192330609999,854.62568915,854.1192330609999,854.62568915,854.1192330609999,854.62568915,None,None,left,2.5625318759998663,855.398752371,None,None,None,x,0.15565464999986034,858.0376820500001,None,858.2243384860001,None,1,,,,,,,,105,32,2022_Sep_08_1203,templeton_exp2A_SD,2020.2.10,37.51564285070233,
,,,,,,,,,,,,,,,,,,,,,,60,0,60,0,,,,,,,,,,,,,,,,,,,,,,,,2.3000000000000003,2.4000000000000004,2.9000000000000004,,,,,,,,,,,,,,,,,,,,,,,,,,,,,,,,,,,60,798.3299356350001,0,8,4,5,1,6,2,7,1,0,5,860.650088736,None,0,8,4,5,1,6,2,7,,863.5156004790001,None,863.5156004790001,None,863.5156004790001,None,863.5156004790001,None,863.5156004790001,None,863.5156004790001,None,863.5156004790001,None,863.5156004790001,None,863.5956408930001,864.102119895,863.5956408930001,864.102119895,863.5956408930001,864.102119895,None,None,down,1.3496494360001634,863.5956408930001,None,None,None,z,0.168879767999897,865.008433834,None,865.221688762,None,,0,0,0,,,,,105,32,2022_Sep_08_1203,templeton_exp2A_SD,2020.2.10,37.51564285070233,
,,,,,,,,,,,,,,,,,,,,,,61,0,61,0,,,,,,,,,,,,,,,,,,,,,,,,2.9000000000000004,1.6,2.9000000000000004,,,,,,,,,,,,,,,,,,,,,,,,,,,,,,,,,,,61,803.478737919,0,8,2,9,1,7,4,6,0,1,2,865.794815193,None,0,8,3,9,1,7,4,6,,869.246860623,None,869.246860623,None,869.246860623,None,869.246860623,None,869.246860623,None,869.246860623,None,869.246860623,None,869.246860623,None,867.9406645010001,868.447103881,867.9406645010001,868.447103881,867.9406645010001,868.447103881,None,None,left,1.3464425469999242,869.246860623,None,None,None,x,0.31767781500002457,870.659635366,None,871.0061327440001,None,,1,1,1,,,,,105,32,2022_Sep_08_1203,templeton_exp2A_SD,2020.2.10,37.51564285070233,
,,,,,,,,,,,,,,,,,,,,,,62,0,62,0,,,,,,,,,,,,,,,,,,,,,,,,3.3000000000000003,3.4000000000000004,3.9000000000000004,,,,,,,,,,,,,,,,,,,,,,,,,,,,,,,,,,,62,809.2628425400001,1,5,3,7,2,8,4,9,1,0,6,871.5792911379999,None,1,5,3,7,2,8,4,9,,875.431080649,None,875.431080649,None,875.431080649,None,875.431080649,None,875.431080649,None,875.431080649,None,875.431080649,None,875.431080649,None,875.537784528,876.0442122700001,875.537784528,876.0442122700001,875.537784528,876.0442122700001,None,None,down,2.175522178000165,875.537784528,None,None,None,z,0.20038208000005397,877.776937118,None,878.0167685420001,None,,2,1,1,,,,,105,32,2022_Sep_08_1203,templeton_exp2A_SD,2020.2.10,37.51564285070233,
,,,,,,,,,,,,,,,,,,,,,,63,0,63,0,,,,,,,,,,,,,,,,,,,,,,,,2.5,2.6,3.1,,,,,,,,,,,,,,,,,,,,,,,,,,,,,,,,,,,63,816.2725983739999,0,6,3,5,4,7,1,9,1,1,3,878.589953901,None,0,6,3,2,4,7,1,9,,881.642138837,None,881.642138837,None,881.642138837,None,881.642138837,None,881.642138837,None,881.642138837,None,881.642138837,None,881.642138837,None,881.748733684,882.2552412150001,881.748733684,882.2552412150001,881.748733684,882.2552412150001,None,None,left,1.956555058000049,881.748733684,None,None,None,x,0.30664886699992167,883.7746682910001,None,884.121223521,None,,3,1,1,,,,,105,32,2022_Sep_08_1203,templeton_exp2A_SD,2020.2.10,37.51564285070233,
,,,,,,,,,,,,,,,,,,,,,,64,0,64,0,,,,,,,,,,,,,,,,,,,,,,,,2.9000000000000004,1.6,2.9000000000000004,,,,,,,,,,,,,,,,,,,,,,,,,,,,,,,,,,,64,822.377799998,3,9,1,7,4,5,2,8,0,0,5,884.694256041,None,3,9,1,7,4,5,2,8,,888.1463513210001,None,888.1463513210001,None,888.1463513210001,None,888.1463513210001,None,888.1463513210001,None,888.1463513210001,None,888.1463513210001,None,888.1463513210001,None,886.8401691010001,887.346600888,886.8401691010001,887.346600888,886.8401691010001,887.346600888,None,None,down,1.5109450229999766,888.1463513210001,None,None,None,c,0.1062885549999919,889.7190313450001,None,889.8523137,None,,4,2,2,,,,,105,32,2022_Sep_08_1203,templeton_exp2A_SD,2020.2.10,37.51564285070233,
,,,,,,,,,,,,,,,,,,,,,,65,0,65,0,,,,,,,,,,,,,,,,,,,,,,,,2.9000000000000004,1.6,2.9000000000000004,,,,,,,,,,,,,,,,,,,,,,,,,,,,,,,,,,,65,828.108769897,2,9,3,6,0,5,4,7,0,0,4,890.425485297,None,2,9,3,6,0,5,4,7,,893.877500758,None,893.877500758,None,893.877500758,None,893.877500758,None,893.877500758,None,893.877500758,None,893.877500758,None,893.877500758,None,892.571257395,893.0777960089999,892.571257395,893.0777960089999,892.571257395,893.0777960089999,None,None,down,1.7557961710001564,893.877500758,None,None,None,x,0.2631465649999427,895.690149987,None,895.9833264389999,None,,5,3,3,,,,,105,32,2022_Sep_08_1203,templeton_exp2A_SD,2020.2.10,37.51564285070233,
,,,,,,,,,,,,,,,,,,,,,,66,0,66,0,,,,,,,,,,,,,,,,,,,,,,,,2.7,2.8000000000000003,3.3000000000000003,,,,,,,,,,,,,,,,,,,,,,,,,,,,,,,,,,,66,834.2401006939999,4,9,0,5,2,6,3,8,1,0,4,896.5564241950001,None,4,9,0,5,2,6,3,8,,899.821881436,None,899.821881436,None,899.821881436,None,899.821881436,None,899.821881436,None,899.821881436,None,899.821881436,None,899.821881436,None,899.9018611930001,900.4083548420001,899.9018611930001,900.4083548420001,899.9018611930001,900.4083548420001,None,None,left,1.9634457730001031,899.9018611930001,None,None,None,x,0.2975139620000391,901.927786207,None,902.2742256399999,None,,6,3,3,,,,,105,32,2022_Sep_08_1203,templeton_exp2A_SD,2020.2.10,37.51564285070233,
,,,,,,,,,,,,,,,,,,,,,,67,0,67,0,,,,,,,,,,,,,,,,,,,,,,,,2.5,2.6,3.1,,,,,,,,,,,,,,,,,,,,,,,,,,,,,,,,,,,67,840.5309577560001,3,9,2,7,1,8,4,6,1,0,1,902.8473721089999,None,3,9,2,7,1,8,4,6,,905.8996090180001,None,905.8996090180001,None,905.8996090180001,None,905.8996090180001,None,905.8996090180001,None,905.8996090180001,None,905.8996090180001,None,905.8996090180001,None,906.0062090920001,906.512717908,906.0062090920001,906.512717908,906.0062090920001,906.512717908,None,None,down,3.3470473969998693,906.0062090920001,None,None,None,x,0.14303566500007037,909.4182799,None,909.6048813110001,None,,7,3,3,,,,,105,32,2022_Sep_08_1203,templeton_exp2A_SD,2020.2.10,37.51564285070233,
,,,,,,,,,,,,,,,,,,,,,,68,0,68,0,,,,,,,,,,,,,,,,,,,,,,,,2.9000000000000004,1.6,2.9000000000000004,,,,,,,,,,,,,,,,,,,,,,,,,,,,,,,,,,,68,847.861817319,3,7,2,9,4,8,0,6,0,1,6,910.1779224530001,None,3,7,2,9,4,8,1,6,,913.62998369,None,913.62998369,None,913.62998369,None,913.62998369,None,913.62998369,None,913.62998369,None,913.62998369,None,913.62998369,None,912.32384585,912.8302907340001,912.32384585,912.8302907340001,912.32384585,912.8302907340001,None,None,left,2.4753146609998566,913.62998369,None,None,None,x,0.1349054069999056,916.1623995360001,None,916.3488987989999,None,,8,4,4,,,,,105,32,2022_Sep_08_1203,templeton_exp2A_SD,2020.2.10,37.51564285070233,
,,,,,,,,,,,,,,,,,,,,,,69,0,69,0,,,,,,,,,,,,,,,,,,,,,,,,2.3000000000000003,2.4000000000000004,2.9000000000000004,,,,,,,,,,,,,,,,,,,,,,,,,,,,,,,,,,,69,854.6059861240001,3,9,2,7,0,6,1,8,1,1,4,916.922064717,None,3,9,2,7,4,6,1,8,,919.787599777,None,919.787599777,None,919.787599777,None,919.787599777,None,919.787599777,None,919.787599777,None,919.787599777,None,919.787599777,None,919.867655927,920.374086772,919.867655927,920.374086772,919.867655927,920.374086772,None,None,down,1.7016403840000294,919.867655927,None,None,None,x,0.1023308349999752,921.626983355,None,921.760227322,None,,9,4,4,,,,,105,32,2022_Sep_08_1203,templeton_exp2A_SD,2020.2.10,37.51564285070233,
,,,,,,,,,,,,,,,,,,,,,,70,0,70,0,,,,,,,,,,,,,,,,,,,,,,,,2.9000000000000004,1.6,2.9000000000000004,,,,,,,,,,,,,,,,,,,,,,,,,,,,,,,,,,,70,860.01604348,4,6,1,7,3,5,2,9,0,0,3,922.3334112709999,None,4,6,1,7,3,5,2,9,,925.785392554,None,925.785392554,None,925.785392554,None,925.785392554,None,925.785392554,None,925.785392554,None,925.785392554,None,925.785392554,None,924.479246784,924.9856667829999,924.479246784,924.9856667829999,924.479246784,924.9856667829999,None,None,down,1.5758925709999403,925.785392554,None,None,None,z,0.31525412999985747,927.438061087,None,927.7846206480001,None,,10,5,5,,,,,105,32,2022_Sep_08_1203,templeton_exp2A_SD,2020.2.10,37.51564285070233,
,,,,,,,,,,,,,,,,,,,,,,71,0,71,0,,,,,,,,,,,,,,,,,,,,,,,,2.7,2.8000000000000003,3.3000000000000003,,,,,,,,,,,,,,,,,,,,,,,,,,,,,,,,,,,71,866.0416357690001,1,6,3,9,0,5,2,8,1,0,5,928.357727998,None,1,6,3,9,0,5,2,8,,931.6232042720001,None,931.6232042720001,None,931.6232042720001,None,931.6232042720001,None,931.6232042720001,None,931.6232042720001,None,931.6232042720001,None,931.6232042720001,None,931.703151703,932.2096445100001,931.703151703,932.2096445100001,931.703151703,932.2096445100001,None,None,down,1.4660302949998822,931.703151703,None,None,None,x,0.242707861000099,933.222595292,None,933.5157398599999,None,,11,5,5,,,,,105,32,2022_Sep_08_1203,templeton_exp2A_SD,2020.2.10,37.51564285070233,
,,,,,,,,,,,,,,,,,,,,,,72,0,72,0,,,,,,,,,,,,,,,,,,,,,,,,2.1,2.2,2.7,,,,,,,,,,,,,,,,,,,,,,,,,,,,,,,,,,,72,871.7726952380001,3,6,0,8,2,7,1,5,1,0,6,934.0889378290001,None,3,6,0,8,2,7,1,5,,936.741261351,None,936.741261351,None,936.741261351,None,936.741261351,None,936.741261351,None,936.741261351,None,936.741261351,None,936.741261351,None,936.8478683190001,937.3543486379999,936.8478683190001,937.3543486379999,936.8478683190001,937.3543486379999,None,None,down,3.2414429259999906,936.8478683190001,None,None,None,z,0.5120316640000055,940.15326876,None,940.713128119,None,,12,5,5,,,,,105,32,2022_Sep_08_1203,templeton_exp2A_SD,2020.2.10,37.51564285070233,
,,,,,,,,,,,,,,,,,,,,,,73,0,73,0,,,,,,,,,,,,,,,,,,,,,,,,2.9000000000000004,1.6,2.9000000000000004,,,,,,,,,,,,,,,,,,,,,,,,,,,,,,,,,,,73,878.9691217970001,4,7,3,5,1,9,2,6,0,1,6,941.286169059,None,4,7,3,5,1,9,0,6,,944.7382201739999,None,944.7382201739999,None,944.7382201739999,None,944.7382201739999,None,944.7382201739999,None,944.7382201739999,None,944.7382201739999,None,944.7382201739999,None,943.4319809819999,943.9384792620001,943.4319809819999,943.9384792620001,943.4319809819999,943.9384792620001,None,None,left,1.0870633360000284,944.7382201739999,None,None,None,z,0.2048639849999745,945.8844520980001,None,946.1243255680001,None,,13,6,6,,,,,105,32,2022_Sep_08_1203,templeton_exp2A_SD,2020.2.10,37.51564285070233,
,,,,,,,,,,,,,,,,,,,,,,74,0,74,0,,,,,,,,,,,,,,,,,,,,,,,,2.5,2.6,3.1,,,,,,,,,,,,,,,,,,,,,,,,,,,,,,,,,,,74,884.3810096469999,2,8,0,9,4,6,3,5,1,0,7,946.6974542190001,None,2,8,0,9,4,6,3,5,,949.7496306390001,None,949.7496306390001,None,949.7496306390001,None,949.7496306390001,None,949.7496306390001,None,949.7496306390001,None,949.7496306390001,None,949.7496306390001,None,949.8562846909999,950.3627761299999,949.8562846909999,950.3627761299999,949.8562846909999,950.3627761299999,None,None,down,1.8410132890001023,949.8562846909999,None,None,None,x,0.17776772000001984,951.775560409,None,951.988817554,None,,14,6,6,,,,,105,32,2022_Sep_08_1203,templeton_exp2A_SD,2020.2.10,37.51564285070233,
,,,,,,,,,,,,,,,,,,,,,,75,0,75,0,,,,,,,,,,,,,,,,,,,,,,,,2.9000000000000004,1.6,2.9000000000000004,,,,,,,,,,,,,,,,,,,,,,,,,,,,,,,,,,,75,892.627197694,0,9,3,8,1,6,2,5,0,1,5,954.9476528600001,None,0,9,3,8,1,4,2,5,,958.399687676,None,958.399687676,None,958.399687676,None,958.399687676,None,958.399687676,None,958.399687676,None,958.399687676,None,958.399687676,None,957.093496529,957.599939726,957.093496529,957.599939726,957.093496529,957.599939726,None,None,down,2.433578009999792,958.399687676,None,None,None,z,0.15188038799988135,960.9054310419999,None,961.092045285,None,,15,6,7,,,,,105,32,2022_Sep_08_1203,templeton_exp2A_SD,2020.2.10,37.51564285070233,
,,,,,,,,,,,,,,,,,,,,,,76,0,76,0,,,,,,,,,,,,,,,,,,,,,,,,1.9,2.0,2.5,,,,,,,,,,,,,,,,,,,,,,,,,,,,,,,,,,,76,899.349452359,3,9,1,8,2,5,0,7,1,0,7,961.6651513030001,None,3,9,1,8,2,5,0,7,,964.1308100670001,None,964.1308100670001,None,964.1308100670001,None,964.1308100670001,None,964.1308100670001,None,964.1308100670001,None,964.1308100670001,None,964.1308100670001,None,964.2108445389999,964.717270585,964.2108445389999,964.717270585,964.2108445389999,964.717270585,None,None,left,1.9104468240000188,964.2108445389999,None,None,None,x,0.26594936600008623,966.1833492650001,None,966.4765790179999,None,,16,6,7,,,,,105,32,2022_Sep_08_1203,templeton_exp2A_SD,2020.2.10,37.51564285070233,
,,,,,,,,,,,,,,,,,,,,,,77,0,77,0,,,,,,,,,,,,,,,,,,,,,,,,2.7,2.8000000000000003,3.3000000000000003,,,,,,,,,,,,,,,,,,,,,,,,,,,,,,,,,,,77,904.7336262910001,3,8,2,7,0,5,4,9,1,1,3,967.049751991,None,3,8,2,1,0,5,4,9,,970.3151477020001,None,970.3151477020001,None,970.3151477020001,None,970.3151477020001,None,970.3151477020001,None,970.3151477020001,None,970.3151477020001,None,970.3151477020001,None,970.3951681000001,970.9016141469999,970.3951681000001,970.9016141469999,970.3951681000001,970.9016141469999,None,None,left,1.4461377729999185,970.3951681000001,None,None,None,x,0.21481145699999615,971.9144917579999,None,972.181101035,None,,17,6,7,,,,,105,32,2022_Sep_08_1203,templeton_exp2A_SD,2020.2.10,37.51564285070233,
,,,,,,,,,,,,,,,,,,,,,,78,0,78,0,,,,,,,,,,,,,,,,,,,,,,,,2.9000000000000004,1.6,2.9000000000000004,,,,,,,,,,,,,,,,,,,,,,,,,,,,,,,,,,,78,910.4379188560001,2,7,4,8,3,5,1,6,0,1,1,972.7542781110001,None,2,0,4,8,3,5,1,6,,976.206309921,None,976.206309921,None,976.206309921,None,976.206309921,None,976.206309921,None,976.206309921,None,976.206309921,None,976.206309921,None,974.900018628,975.4066044400001,974.900018628,975.4066044400001,974.900018628,975.4066044400001,983.323492554,None,left,8.1469725689999,976.206309921,None,None,None,z,2.360813245000145,984.4164969190001,None,986.81555013,None,,18,7,8,,,,,105,32,2022_Sep_08_1203,templeton_exp2A_SD,2020.2.10,37.51564285070233,
,,,,,,,,,,,,,,,,,,,,,,79,0,79,0,,,,,,,,,,,,,,,,,,,,,,,,2.9000000000000004,1.6,2.9000000000000004,,,,,,,,,,,,,,,,,,,,,,,,,,,,,,,,,,,79,925.073132855,1,8,3,7,2,5,0,6,0,0,6,987.388730576,None,1,8,3,7,2,5,0,6,,990.8407594550001,None,990.8407594550001,None,990.8407594550001,None,990.8407594550001,None,990.8407594550001,None,990.8407594550001,None,990.8407594550001,None,990.8407594550001,None,989.534579679,990.0410641589999,989.534579679,990.0410641589999,989.534579679,990.0410641589999,None,None,left,2.2645366629999444,990.8407594550001,None,None,None,x,0.24942522499986808,993.1598875730001,None,993.4530553249999,None,,19,7,9,,,,,105,32,2022_Sep_08_1203,templeton_exp2A_SD,2020.2.10,37.51564285070233,
,,,,,,,,,,,,,,,,,,,,,,80,0,80,0,,,,,,,,,,,,,,,,,,,,,,,,1.7,1.8,2.3,,,,,,,,,,,,,,,,,,,,,,,,,,,,,,,,,,,80,931.7103562570001,2,8,0,6,1,7,3,9,1,0,7,994.0262370350001,None,2,8,0,6,1,7,3,9,,996.2787061220001,None,996.2787061220001,None,996.2787061220001,None,996.2787061220001,None,996.2787061220001,None,996.2787061220001,None,996.2787061220001,None,996.2787061220001,None,996.3853478569999,996.891800055,996.3853478569999,996.891800055,996.3853478569999,996.891800055,None,None,down,5.191943472000048,996.3853478569999,None,None,None,x,0.740706050000199,1001.6365931319999,None,1002.409707952,None,,20,7,9,,,,,105,32,2022_Sep_08_1203,templeton_exp2A_SD,2020.2.10,37.51564285070233,
,,,,,,,,,,,,,,,,,,,,,,81,0,81,0,,,,,,,,,,,,,,,,,,,,,,,,2.7,2.8000000000000003,3.3000000000000003,,,,,,,,,,,,,,,,,,,,,,,,,,,,,,,,,,,81,940.6658299610001,4,7,0,6,1,9,3,5,1,1,2,1002.982826514,None,4,7,2,6,1,9,3,5,,1006.2481805320001,None,1006.2481805320001,None,1006.2481805320001,None,1006.2481805320001,None,1006.2481805320001,None,1006.2481805320001,None,1006.2481805320001,None,1006.2481805320001,None,1006.32823211,1006.834665112,1006.32823211,1006.834665112,1006.32823211,1006.834665112,None,None,left,2.2650183199998537,1006.32823211,None,None,None,x,0.3699618560001454,1008.647339951,None,1009.047159642,None,,21,7,9,,,,,105,32,2022_Sep_08_1203,templeton_exp2A_SD,2020.2.10,37.51564285070233,
,,,,,,,,,,,,,,,,,,,,,,82,0,82,0,,,,,,,,,,,,,,,,,,,,,,,,2.9000000000000004,1.6,2.9000000000000004,,,,,,,,,,,,,,,,,,,,,,,,,,,,,,,,,,,82,947.304809943,2,6,1,7,3,5,0,8,0,1,0,1009.620275176,None,4,6,1,7,3,5,0,8,,1013.0723282870001,None,1013.0723282870001,None,1013.0723282870001,None,1013.0723282870001,None,1013.0723282870001,None,1013.0723282870001,None,1013.0723282870001,None,1013.0723282870001,None,1011.7660948729999,1012.2726407509999,1011.7660948729999,1012.2726407509999,1011.7660948729999,1012.2726407509999,None,None,left,2.208956136000097,1013.0723282870001,None,None,None,z,0.7671691230000306,1015.3381423210001,None,1016.1378490910001,None,,22,8,10,,,,,105,32,2022_Sep_08_1203,templeton_exp2A_SD,2020.2.10,37.51564285070233,
,,,,,,,,,,,,,,,,,,,,,,83,0,83,0,,,,,,,,,,,,,,,,,,,,,,,,2.9000000000000004,1.6,2.9000000000000004,,,,,,,,,,,,,,,,,,,,,,,,,,,,,,,,,,,83,954.393493158,0,5,1,6,4,7,2,9,0,1,2,1016.7109539339999,None,0,5,3,6,4,7,2,9,,1020.1629975149999,None,1020.1629975149999,None,1020.1629975149999,None,1020.1629975149999,None,1020.1629975149999,None,1020.1629975149999,None,1020.1629975149999,None,1020.1629975149999,None,1018.856815481,1019.3632481239999,1018.856815481,1019.3632481239999,1018.856815481,1019.3632481239999,None,None,left,1.878363532000094,1020.1629975149999,None,None,None,x,0.7244209299999511,1022.1088807640001,None,1022.8819572080001,None,,23,9,11,,,,,105,32,2022_Sep_08_1203,templeton_exp2A_SD,2020.2.10,37.51564285070233,
,,,,,,,,,,,,,,,,,,,,,,84,0,84,0,,,,,,,,,,,,,,,,,,,,,,,,2.9000000000000004,1.6,2.9000000000000004,,,,,,,,,,,,,,,,,,,,,,,,,,,,,,,,,,,84,961.138927405,4,7,0,9,2,8,3,6,0,0,0,1023.4550757740001,None,4,7,0,9,2,8,3,6,,1026.907102952,None,1026.907102952,None,1026.907102952,None,1026.907102952,None,1026.907102952,None,1026.907102952,None,1026.907102952,None,1026.907102952,None,1025.600869782,1026.107278399,1025.600869782,1026.107278399,1025.600869782,1026.107278399,None,None,down,1.662188548000131,1026.907102952,None,None,None,x,0.2895396819999405,1028.6397608930001,None,1028.959656115,None,,24,10,12,,,,,105,32,2022_Sep_08_1203,templeton_exp2A_SD,2020.2.10,37.51564285070233,
,,,,,,,,,,,,,,,,,,,,,,85,0,85,0,,,,,,,,,,,,,,,,,,,,,,,,2.5,2.6,3.1,,,,,,,,,,,,,,,,,,,,,,,,,,,,,,,,,,,85,967.2160027709999,3,8,2,9,1,6,0,5,1,0,1,1029.532563453,None,3,8,2,9,1,6,0,5,,1032.584909087,None,1032.584909087,None,1032.584909087,None,1032.584909087,None,1032.584909087,None,1032.584909087,None,1032.584909087,None,1032.584909087,None,1032.691557594,1033.197980014,1032.691557594,1033.197980014,1032.691557594,1033.197980014,None,None,down,2.3736433970000235,1032.691557594,None,None,None,x,0.377324710000039,1035.143978345,None,1035.5704106580001,None,,25,10,12,,,,,105,32,2022_Sep_08_1203,templeton_exp2A_SD,2020.2.10,37.51564285070233,
,,,,,,,,,,,,,,,,,,,,,,86,0,86,0,,,,,,,,,,,,,,,,,,,,,,,,2.9000000000000004,1.6,2.9000000000000004,,,,,,,,,,,,,,,,,,,,,,,,,,,,,,,,,,,86,973.8270243700001,4,7,0,9,2,5,1,8,0,1,0,1036.143611148,None,3,7,0,9,2,5,1,8,,1039.595572178,None,1039.595572178,None,1039.595572178,None,1039.595572178,None,1039.595572178,None,1039.595572178,None,1039.595572178,None,1039.595572178,None,1038.289438992,1038.795949706,1038.289438992,1038.795949706,1038.289438992,1038.795949706,None,None,left,1.3097107920000326,1039.595572178,None,None,None,z,0.17959227599999394,1040.9817091520001,None,1041.19500938,None,,26,11,13,,,,,105,32,2022_Sep_08_1203,templeton_exp2A_SD,2020.2.10,37.51564285070233,
,,,,,,,,,,,,,,,,,,,,,,87,0,87,0,,,,,,,,,,,,,,,,,,,,,,,,2.9000000000000004,1.6,2.9000000000000004,,,,,,,,,,,,,,,,,,,,,,,,,,,,,,,,,,,87,979.452096707,0,7,4,8,1,9,3,6,0,0,6,1041.76812951,None,0,7,4,8,1,9,3,6,,1045.220123476,None,1045.220123476,None,1045.220123476,None,1045.220123476,None,1045.220123476,None,1045.220123476,None,1045.220123476,None,1045.220123476,None,1043.913974226,1044.420372942,1043.913974226,1044.420372942,1043.913974226,1044.420372942,None,None,down,2.725162848000082,1045.220123476,None,None,None,x,0.4542118679999021,1048.019062743,None,1048.525535626,None,,27,12,14,,,,,105,32,2022_Sep_08_1203,templeton_exp2A_SD,2020.2.10,37.51564285070233,
,,,,,,,,,,,,,,,,,,,,,,88,0,88,0,,,,,,,,,,,,,,,,,,,,,,,,2.9000000000000004,1.6,2.9000000000000004,,,,,,,,,,,,,,,,,,,,,,,,,,,,,,,,,,,88,986.781673193,1,7,2,6,3,9,0,5,0,0,5,1049.098661299,None,1,7,2,6,3,9,0,5,,1052.550518083,None,1052.550518083,None,1052.550518083,None,1052.550518083,None,1052.550518083,None,1052.550518083,None,1052.550518083,None,1052.550518083,None,1051.244495767,1051.751006466,1051.244495767,1051.751006466,1051.244495767,1051.751006466,None,None,left,1.4587689830000272,1052.550518083,None,None,None,x,0.5952263609999591,1054.070100731,None,1054.709897235,None,,28,12,15,,,,,105,32,2022_Sep_08_1203,templeton_exp2A_SD,2020.2.10,37.51564285070233,
,,,,,,,,,,,,,,,,,,,,,,89,0,89,0,,,,,,,,,,,,,,,,,,,,,,,,2.5,2.6,3.1,,,,,,,,,,,,,,,,,,,,,,,,,,,,,,,,,,,89,992.966740931,1,9,2,8,4,6,0,5,1,0,0,1055.282939167,None,1,9,2,8,4,6,0,5,,1058.335187784,None,1058.335187784,None,1058.335187784,None,1058.335187784,None,1058.335187784,None,1058.335187784,None,1058.335187784,None,1058.335187784,None,1058.441769425,1058.94829237,1058.441769425,1058.94829237,1058.441769425,1058.94829237,None,None,left,2.0635384390000127,1058.441769425,None,None,None,x,0.35497360599993044,1060.574342394,None,1060.9741956780001,None,,29,12,15,,,,,105,32,2022_Sep_08_1203,templeton_exp2A_SD,2020.2.10,37.51564285070233,
,,,,,,,,,,,,,,,,,,,,,,90,0,90,0,,,,,,,,,,,,,,,,,,,,,,,,1.9,2.0,2.5,,,,,,,,,,,,,,,,,,,,,,,,,,,,,,,,,,,90,1002.493418176,1,8,3,6,4,9,0,7,1,0,2,1064.812740993,None,1,8,3,6,4,9,0,7,,1067.278454005,None,1067.278454005,None,1067.278454005,None,1067.278454005,None,1067.278454005,None,1067.278454005,None,1067.278454005,None,1067.278454005,None,1067.358434688,1067.864868842,1067.358434688,1067.864868842,1067.358434688,1067.864868842,None,None,left,3.618856906000019,1067.358434688,None,None,None,x,0.8522368290000486,1071.037002913,None,1071.916615957,None,,30,12,15,,,,,105,32,2022_Sep_08_1203,templeton_exp2A_SD,2020.2.10,37.51564285070233,
,,,,,,,,,,,,,,,,,,,,,,91,0,91,0,,,,,,,,,,,,,,,,,,,,,,,,2.9000000000000004,1.6,2.9000000000000004,,,,,,,,,,,,,,,,,,,,,,,,,,,,,,,,,,,91,1010.1741492850001,1,8,4,6,2,9,0,7,0,1,3,1072.489753238,None,1,8,4,3,2,9,0,7,,1075.9418026820001,None,1075.9418026820001,None,1075.9418026820001,None,1075.9418026820001,None,1075.9418026820001,None,1075.9418026820001,None,1075.9418026820001,None,1075.9418026820001,None,1074.6623579910001,1075.168727345,1074.6623579910001,1075.168727345,1074.6623579910001,1075.168727345,None,None,left,1.4194052610000654,1075.9418026820001,None,None,None,x,0.9588254160000815,1077.434527005,None,1078.42090981,None,,31,13,16,,,,,105,32,2022_Sep_08_1203,templeton_exp2A_SD,2020.2.10,37.51564285070233,
,,,,,,,,,,,,,,,,,,,,,,92,0,92,0,,,,,,,,,,,,,,,,,,,,,,,,2.9000000000000004,1.6,2.9000000000000004,,,,,,,,,,,,,,,,,,,,,,,,,,,,,,,,,,,92,1016.6770394120001,0,6,4,5,2,9,1,8,0,0,6,1078.994028019,None,0,6,4,5,2,9,1,8,,1082.446066331,None,1082.446066331,None,1082.446066331,None,1082.446066331,None,1082.446066331,None,1082.446066331,None,1082.446066331,None,1082.446066331,None,1081.139870707,1081.646349456,1081.139870707,1081.646349456,1081.139870707,1081.646349456,None,None,down,1.7472306320000826,1082.446066331,None,None,None,z,0.43860988999995243,1084.258702788,None,1084.738506335,None,,32,14,17,,,,,105,32,2022_Sep_08_1203,templeton_exp2A_SD,2020.2.10,37.51564285070233,
,,,,,,,,,,,,,,,,,,,,,,93,0,93,0,,,,,,,,,,,,,,,,,,,,,,,,3.5,3.6,4.1,,,,,,,,,,,,,,,,,,,,,,,,,,,,,,,,,,,93,1022.9952177160001,3,5,0,6,1,7,4,8,1,1,7,1085.311638524,None,3,5,0,6,1,7,4,2,,1089.376757299,None,1089.376757299,None,1089.376757299,None,1089.376757299,None,1089.376757299,None,1089.376757299,None,1089.376757299,None,1089.376757299,None,1089.45672723,1089.963165913,1089.45672723,1089.963165913,1089.45672723,1089.963165913,None,None,down,4.8885802859999785,1089.45672723,None,None,None,x,0.5864120040000671,1094.41481079,None,1095.027899526,None,,33,14,17,,,,,105,32,2022_Sep_08_1203,templeton_exp2A_SD,2020.2.10,37.51564285070233,
,,,,,,,,,,,,,,,,,,,,,,94,0,94,0,,,,,,,,,,,,,,,,,,,,,,,,2.9000000000000004,1.6,2.9000000000000004,,,,,,,,,,,,,,,,,,,,,,,,,,,,,,,,,,,94,1033.283918359,4,5,2,6,0,7,3,9,0,1,2,1095.600946839,None,4,5,1,6,0,7,3,9,,1099.053078843,None,1099.053078843,None,1099.053078843,None,1099.053078843,None,1099.053078843,None,1099.053078843,None,1099.053078843,None,1099.053078843,None,1097.746854446,1098.253355705,1097.746854446,1098.253355705,1097.746854446,1098.253355705,None,None,left,1.3801392880000094,1099.053078843,None,None,None,z,1.588771227999814,1100.4925384370001,None,1102.118559841,None,,34,15,18,,,,,105,32,2022_Sep_08_1203,templeton_exp2A_SD,2020.2.10,37.51564285070233,
,,,,,,,,,,,,,,,,,,,,,,95,0,95,0,,,,,,,,,,,,,,,,,,,,,,,,2.9000000000000004,1.6,2.9000000000000004,,,,,,,,,,,,,,,,,,,,,,,,,,,,,,,,,,,95,1040.374448945,1,7,4,9,3,6,2,5,0,0,7,1102.691668964,None,1,7,4,9,3,6,2,5,,1106.143735237,None,1106.143735237,None,1106.143735237,None,1106.143735237,None,1106.143735237,None,1106.143735237,None,1106.143735237,None,1106.143735237,None,1104.837528766,1105.344045,1104.837528766,1105.344045,1104.837528766,1105.344045,None,None,down,1.5215556910000032,1106.143735237,None,None,None,z,0.5061685519999628,1107.743129884,None,1108.276187248,None,,35,16,19,,,,,105,32,2022_Sep_08_1203,templeton_exp2A_SD,2020.2.10,37.51564285070233,
,,,,,,,,,,,,,,,,,,,,,,96,0,96,0,,,,,,,,,,,,,,,,,,,,,,,,2.5,2.6,3.1,,,,,,,,,,,,,,,,,,,,,,,,,,,,,,,,,,,96,1046.533220761,4,7,0,8,2,6,3,5,1,0,7,1108.849326855,None,4,7,0,8,2,6,3,5,,1111.901544539,None,1111.901544539,None,1111.901544539,None,1111.901544539,None,1111.901544539,None,1111.901544539,None,1111.901544539,None,1111.901544539,None,1112.008177787,1112.514584587,1112.008177787,1112.514584587,1112.008177787,1112.514584587,None,None,down,0.9610953810001774,1112.008177787,None,None,None,z,0.2575117209999007,1113.047800949,None,1113.341023213,None,,36,16,19,,,,,105,32,2022_Sep_08_1203,templeton_exp2A_SD,2020.2.10,37.51564285070233,
,,,,,,,,,,,,,,,,,,,,,,97,0,97,0,,,,,,,,,,,,,,,,,,,,,,,,2.3000000000000003,2.4000000000000004,2.9000000000000004,,,,,,,,,,,,,,,,,,,,,,,,,,,,,,,,,,,97,1051.598065953,0,6,4,8,2,7,1,9,1,1,5,1113.9140848260001,None,0,6,4,8,2,3,1,9,,1116.779721416,None,1116.779721416,None,1116.779721416,None,1116.779721416,None,1116.779721416,None,1116.779721416,None,1116.779721416,None,1116.779721416,None,1116.88628769,1117.392810193,1116.88628769,1117.392810193,1116.88628769,1117.392810193,None,None,left,2.419020303000025,1116.88628769,None,None,None,c,0.4198587419998603,1119.3654049890001,None,1119.818517845,None,,37,16,19,,,,,105,32,2022_Sep_08_1203,templeton_exp2A_SD,2020.2.10,37.51564285070233,
,,,,,,,,,,,,,,,,,,,,,,98,0,98,0,,,,,,,,,,,,,,,,,,,,,,,,2.9000000000000004,1.6,2.9000000000000004,,,,,,,,,,,,,,,,,,,,,,,,,,,,,,,,,,,98,1058.074491621,1,9,3,5,4,7,0,6,0,0,4,1120.391666081,None,1,9,3,5,4,7,0,6,,1123.8436487210001,None,1123.8436487210001,None,1123.8436487210001,None,1123.8436487210001,None,1123.8436487210001,None,1123.8436487210001,None,1123.8436487210001,None,1123.8436487210001,None,1122.53751692,1123.043960885,1122.53751692,1123.043960885,1122.53751692,1123.043960885,None,None,left,1.3016497280000294,1123.8436487210001,None,None,None,z,1.086126454999885,1125.203169621,None,1126.32276098,None,,38,16,20,,,,,105,32,2022_Sep_08_1203,templeton_exp2A_SD,2020.2.10,37.51564285070233,
,,,,,,,,,,,,,,,,,,,,,,99,0,99,0,,,,,,,,,,,,,,,,,,,,,,,,2.1,2.2,2.7,,,,,,,,,,,,,,,,,,,,,,,,,,,,,,,,,,,99,1064.579158816,3,8,4,9,2,7,1,5,1,1,0,1126.895894381,None,0,8,4,9,2,7,1,5,,1129.548134476,None,1129.548134476,None,1129.548134476,None,1129.548134476,None,1129.548134476,None,1129.548134476,None,1129.548134476,None,1129.548134476,None,1129.654830527,1130.161310554,1129.654830527,1130.161310554,1129.654830527,1130.161310554,None,None,down,4.906458376000046,1129.654830527,None,None,None,x,0.2577057670000613,1134.639607615,None,1134.932742644,None,,39,16,20,,,,,105,32,2022_Sep_08_1203,templeton_exp2A_SD,2020.2.10,37.51564285070233,
,,,,,,,,,,,,,,,,,,,,,,100,0,100,0,,,,,,,,,,,,,,,,,,,,,,,,2.9000000000000004,1.6,2.9000000000000004,,,,,,,,,,,,,,,,,,,,,,,,,,,,,,,,,,,100,1073.1902501060001,3,8,0,6,2,7,1,9,0,1,3,1135.505947855,None,3,8,0,4,2,7,1,9,,1138.957913423,None,1138.957913423,None,1138.957913423,None,1138.957913423,None,1138.957913423,None,1138.957913423,None,1138.957913423,None,1138.957913423,None,1137.678452368,1138.184952675,1137.678452368,1138.184952675,1137.678452368,1138.184952675,None,None,left,1.7072729840001557,1138.957913423,None,None,None,z,0.2093506129999696,1140.743951955,None,1140.983793224,None,,40,17,21,,,,,105,32,2022_Sep_08_1203,templeton_exp2A_SD,2020.2.10,37.51564285070233,
,,,,,,,,,,,,,,,,,,,,,,101,0,101,0,,,,,,,,,,,,,,,,,,,,,,,,2.1,2.2,2.7,,,,,,,,,,,,,,,,,,,,,,,,,,,,,,,,,,,101,1079.241143593,0,7,1,8,2,5,4,6,1,1,1,1141.556992016,None,0,3,1,8,2,5,4,6,,1144.209368467,None,1144.209368467,None,1144.209368467,None,1144.209368467,None,1144.209368467,None,1144.209368467,None,1144.209368467,None,1144.209368467,None,1144.31585084,1144.822428839,1144.31585084,1144.822428839,1144.31585084,1144.822428839,None,None,left,2.0374551549998614,1144.31585084,None,None,None,x,0.2355115840000508,1146.42180753,None,1146.688369198,None,,41,17,21,,,,,105,32,2022_Sep_08_1203,templeton_exp2A_SD,2020.2.10,37.51564285070233,
,,,,,,,,,,,,,,,,,,,,,,102,0,102,0,,,,,,,,,,,,,,,,,,,,,,,,2.9000000000000004,1.6,2.9000000000000004,,,,,,,,,,,,,,,,,,,,,,,,,,,,,,,,,,,102,1084.945649866,1,6,3,9,4,7,0,8,0,1,6,1147.261439078,None,1,6,3,9,4,7,2,8,,1150.713521435,None,1150.713521435,None,1150.713521435,None,1150.713521435,None,1150.713521435,None,1150.713521435,None,1150.713521435,None,1150.713521435,None,1149.407344693,1149.913850787,1149.407344693,1149.913850787,1149.407344693,1149.913850787,None,None,left,1.399781732000065,1150.713521435,None,None,None,x,0.22965638900018348,1152.179654517,None,1152.446210186,None,,42,18,22,,,,,105,32,2022_Sep_08_1203,templeton_exp2A_SD,2020.2.10,37.51564285070233,
,,,,,,,,,,,,,,,,,,,,,,103,0,103,0,,,,,,,,,,,,,,,,,,,,,,,,1.7,1.8,2.3,,,,,,,,,,,,,,,,,,,,,,,,,,,,,,,,,,,103,1090.702995232,1,5,4,6,2,9,0,8,1,1,2,1153.019274532,None,1,5,3,6,2,9,0,8,,1155.271778553,None,1155.271778553,None,1155.271778553,None,1155.271778553,None,1155.271778553,None,1155.271778553,None,1155.271778553,None,1155.271778553,None,1155.378405566,1155.88488687,1155.378405566,1155.88488687,1155.378405566,1155.88488687,None,None,down,1.7989012880000246,1155.378405566,None,None,None,z,0.45291183000017554,1157.2443905110001,None,1157.7241549,None,,43,18,22,,,,,105,32,2022_Sep_08_1203,templeton_exp2A_SD,2020.2.10,37.51564285070233,
,,,,,,,,,,,,,,,,,,,,,,104,0,104,0,,,,,,,,,,,,,,,,,,,,,,,,2.9000000000000004,1.6,2.9000000000000004,,,,,,,,,,,,,,,,,,,,,,,,,,,,,,,,,,,104,1095.980890554,4,9,3,5,2,7,0,8,0,1,0,1158.2973278690001,None,1,9,3,5,2,7,0,8,,1161.749351806,None,1161.749351806,None,1161.749351806,None,1161.749351806,None,1161.749351806,None,1161.749351806,None,1161.749351806,None,1161.749351806,None,1160.443116448,1160.949630373,1160.443116448,1160.949630373,1160.443116448,1160.949630373,None,None,down,0.9959328570000707,1161.749351806,None,None,None,z,0.17768652700010534,1162.815626055,None,1163.0287958640001,None,,44,18,23,,,,,105,32,2022_Sep_08_1203,templeton_exp2A_SD,2020.2.10,37.51564285070233,
,,,,,,,,,,,,,,,,,,,,,,105,0,105,0,,,,,,,,,,,,,,,,,,,,,,,,2.9000000000000004,1.6,2.9000000000000004,,,,,,,,,,,,,,,,,,,,,,,,,,,,,,,,,,,105,1108.918841256,3,5,0,7,4,9,1,6,0,0,2,1171.23906057,None,3,5,0,7,4,9,1,6,,1174.691088556,None,1174.691088556,None,1174.691088556,None,1174.691088556,None,1174.691088556,None,1174.691088556,None,1174.691088556,None,1174.691088556,None,1173.384914452,1173.8914123280001,1173.384914452,1173.8914123280001,1173.384914452,1173.8914123280001,None,None,left,1.1502082939998672,1174.691088556,None,None,None,z,0.6040062189999844,1175.917291314,None,1176.557050631,None,,45,18,24,,,,,105,32,2022_Sep_08_1203,templeton_exp2A_SD,2020.2.10,37.51564285070233,
,,,,,,,,,,,,,,,,,,,,,,106,0,106,0,,,,,,,,,,,,,,,,,,,,,,,,2.9000000000000004,1.6,2.9000000000000004,,,,,,,,,,,,,,,,,,,,,,,,,,,,,,,,,,,106,1114.814068934,0,6,4,8,3,5,1,9,0,1,3,1177.130149773,None,0,6,4,2,3,5,1,9,,1180.582160248,None,1180.582160248,None,1180.582160248,None,1180.582160248,None,1180.582160248,None,1180.582160248,None,1180.582160248,None,1180.582160248,None,1179.276019088,1179.782427167,1179.276019088,1179.782427167,1179.276019088,1179.782427167,None,None,down,1.8191382279999289,1180.582160248,None,None,None,z,0.1985503799999151,1182.4747436970001,None,1182.714685564,None,,46,18,25,,,,,105,32,2022_Sep_08_1203,templeton_exp2A_SD,2020.2.10,37.51564285070233,
,,,,,,,,,,,,,,,,,,,,,,107,0,107,0,,,,,,,,,,,,,,,,,,,,,,,,1.9,2.0,2.5,,,,,,,,,,,,,,,,,,,,,,,,,,,,,,,,,,,107,1120.971501527,2,6,3,5,0,9,4,8,1,0,4,1183.287836835,None,2,6,3,5,0,9,4,8,,1185.753570221,None,1185.753570221,None,1185.753570221,None,1185.753570221,None,1185.753570221,None,1185.753570221,None,1185.753570221,None,1185.753570221,None,1185.8334625730001,1186.340004895,1185.8334625730001,1186.340004895,1185.8334625730001,1186.340004895,None,None,down,2.6558429090000573,1185.8334625730001,None,None,None,x,0.18483521300004213,1188.552476412,None,1188.765689852,None,,47,18,25,,,,,105,32,2022_Sep_08_1203,templeton_exp2A_SD,2020.2.10,37.51564285070233,
,,,,,,,,,,,,,,,,,,,,,,108,0,108,0,,,,,,,,,,,,,,,,,,,,,,,,2.9000000000000004,1.6,2.9000000000000004,,,,,,,,,,,,,,,,,,,,,,,,,,,,,,,,,,,108,1127.021593444,1,5,0,9,4,7,3,6,0,1,5,1189.338805496,None,1,5,0,9,4,2,3,6,,1192.7909012540001,None,1192.7909012540001,None,1192.7909012540001,None,1192.7909012540001,None,1192.7909012540001,None,1192.7909012540001,None,1192.7909012540001,None,1192.7909012540001,None,1191.484758139,1191.9912042380001,1191.484758139,1191.9912042380001,1191.484758139,1191.9912042380001,None,None,left,1.258345495000185,1192.7909012540001,None,None,None,x,0.3576270469998235,1194.123686961,None,1194.523588169,None,,48,19,26,,,,,105,32,2022_Sep_08_1203,templeton_exp2A_SD,2020.2.10,37.51564285070233,
,,,,,,,,,,,,,,,,,,,,,,109,0,109,0,,,,,,,,,,,,,,,,,,,,,,,,2.9000000000000004,1.6,2.9000000000000004,,,,,,,,,,,,,,,,,,,,,,,,,,,,,,,,,,,109,1132.779933191,1,8,3,5,4,6,0,9,0,1,3,1195.0967129580001,None,1,8,3,2,4,6,0,9,,1198.548688271,None,1198.548688271,None,1198.548688271,None,1198.548688271,None,1198.548688271,None,1198.548688271,None,1198.548688271,None,1198.548688271,None,1197.242553554,1197.748962058,1197.242553554,1197.748962058,1197.242553554,1197.748962058,None,None,left,2.2286089709998578,1198.548688271,None,None,None,x,0.4641453099998216,1200.841181018,None,1201.347660053,None,,49,20,27,1,0.7407407407407407,0,,105,32,2022_Sep_08_1203,templeton_exp2A_SD,2020.2.10,37.51564285070233,
,,,,,,,,,,,,,,,,,,,,,,110,0,110,0,,,,,,,,,,,,,,,,,,,,,,,,2.9,3.0,3.5,,,,,,,,,,,,,,,,,,,,,,,,,,,,,,,,,,,110,1139.60481571,2,7,0,6,4,9,1,8,1,0,4,1201.92077498,None,2,7,0,6,4,9,1,8,,1205.372804522,None,1205.372804522,None,1205.372804522,None,1205.372804522,None,1205.372804522,None,1205.372804522,None,1205.372804522,None,1205.372804522,None,1205.4794479290001,1205.985854266,1205.4794479290001,1205.985854266,1205.4794479290001,1205.985854266,None,None,down,1.713855102000025,1205.4794479290001,None,None,None,z,0.4239107040000363,1207.265387659,None,1207.718577976,None,,0,0,0,,,,,105,32,2022_Sep_08_1203,templeton_exp2A_SD,2020.2.10,37.51564285070233,
,,,,,,,,,,,,,,,,,,,,,,111,0,111,0,,,,,,,,,,,,,,,,,,,,,,,,3.5,3.6,4.1,,,,,,,,,,,,,,,,,,,,,,,,,,,,,,,,,,,111,1145.974288234,4,9,2,6,1,5,0,7,1,0,7,1208.291710895,None,4,9,2,6,1,5,0,7,,1212.356816679,None,1212.356816679,None,1212.356816679,None,1212.356816679,None,1212.356816679,None,1212.356816679,None,1212.356816679,None,1212.356816679,None,1212.436737757,1212.9432598600001,1212.436737757,1212.9432598600001,1212.436737757,1212.9432598600001,None,None,down,5.348565785000119,1212.436737757,None,None,None,x,0.6972158339999623,1217.848084371,None,1218.59435461,None,,1,0,0,,,,,105,32,2022_Sep_08_1203,templeton_exp2A_SD,2020.2.10,37.51564285070233,
,,,,,,,,,,,,,,,,,,,,,,112,0,112,0,,,,,,,,,,,,,,,,,,,,,,,,2.5,2.6,3.1,,,,,,,,,,,,,,,,,,,,,,,,,,,,,,,,,,,112,1156.851623653,4,7,3,9,2,6,0,8,1,1,4,1219.167536341,None,4,7,3,9,1,6,0,8,,1222.219715077,None,1222.219715077,None,1222.219715077,None,1222.219715077,None,1222.219715077,None,1222.219715077,None,1222.219715077,None,1222.219715077,None,1222.3263778780001,1222.832785442,1222.3263778780001,1222.832785442,1222.3263778780001,1222.832785442,None,None,left,1.8588809509999464,1222.3263778780001,None,None,None,z,0.355630863999977,1224.2456758370001,None,1224.645503679,None,,2,0,0,,,,,105,32,2022_Sep_08_1203,templeton_exp2A_SD,2020.2.10,37.51564285070233,
,,,,,,,,,,,,,,,,,,,,,,113,0,113,0,,,,,,,,,,,,,,,,,,,,,,,,2.9000000000000004,1.6,2.9000000000000004,,,,,,,,,,,,,,,,,,,,,,,,,,,,,,,,,,,113,1162.902807982,1,5,4,8,3,6,0,7,0,1,3,1225.218572672,None,1,5,4,2,3,6,0,7,,1228.67063989,None,1228.67063989,None,1228.67063989,None,1228.67063989,None,1228.67063989,None,1228.67063989,None,1228.67063989,None,1228.67063989,None,1227.364434513,1227.870937057,1227.364434513,1227.870937057,1227.364434513,1227.870937057,None,None,left,1.5546588619999966,1228.67063989,None,None,None,x,0.6166415379998398,1230.296659543,None,1230.963128688,None,,3,1,1,,,,,105,32,2022_Sep_08_1203,templeton_exp2A_SD,2020.2.10,37.51564285070233,
,,,,,,,,,,,,,,,,,,,,,,114,0,114,0,,,,,,,,,,,,,,,,,,,,,,,,2.9000000000000004,1.6,2.9000000000000004,,,,,,,,,,,,,,,,,,,,,,,,,,,,,,,,,,,114,1169.219632748,4,9,2,8,3,5,0,6,0,0,3,1231.536034731,None,4,9,2,8,3,5,0,6,,1234.9882418070001,None,1234.9882418070001,None,1234.9882418070001,None,1234.9882418070001,None,1234.9882418070001,None,1234.9882418070001,None,1234.9882418070001,None,1234.9882418070001,None,1233.682065735,1234.188521801,1233.682065735,1234.188521801,1233.682065735,1234.188521801,None,None,down,1.453063229999998,1234.9882418070001,None,None,None,z,0.2935439259999839,1236.507665741,None,1236.854214111,None,,4,2,2,,,,,105,32,2022_Sep_08_1203,templeton_exp2A_SD,2020.2.10,37.51564285070233,
,,,,,,,,,,,,,,,,,,,,,,115,0,115,0,,,,,,,,,,,,,,,,,,,,,,,,3.5,3.6,4.1,,,,,,,,,,,,,,,,,,,,,,,,,,,,,,,,,,,115,1175.11120636,4,7,1,6,0,9,3,8,1,0,7,1237.427318427,None,4,7,1,6,0,9,3,8,,1241.492402849,None,1241.492402849,None,1241.492402849,None,1241.492402849,None,1241.492402849,None,1241.492402849,None,1241.492402849,None,1241.492402849,None,1241.5724249,1242.078903566,1241.5724249,1242.078903566,1241.5724249,1242.078903566,None,None,left,1.3328089639999234,1241.5724249,None,None,None,z,0.2747344570000223,1242.958568512,None,1243.278457878,None,,5,2,2,,,,,105,32,2022_Sep_08_1203,templeton_exp2A_SD,2020.2.10,37.51564285070233,
,,,,,,,,,,,,,,,,,,,,,,116,0,116,0,,,,,,,,,,,,,,,,,,,,,,,,2.5,2.6,3.1,,,,,,,,,,,,,,,,,,,,,,,,,,,,,,,,,,,116,1181.535328358,1,5,2,7,3,8,0,9,1,0,5,1243.8515215510001,None,1,5,2,7,3,8,0,9,,1246.903684712,None,1246.903684712,None,1246.903684712,None,1246.903684712,None,1246.903684712,None,1246.903684712,None,1246.903684712,None,1246.903684712,None,1247.010354369,1247.516714781,1247.010354369,1247.516714781,1247.010354369,1247.516714781,None,None,down,2.086902705000057,1247.010354369,None,None,None,c,0.3678396469999825,1249.16947426,None,1249.569359651,None,,6,2,2,,,,,105,32,2022_Sep_08_1203,templeton_exp2A_SD,2020.2.10,37.51564285070233,
,,,,,,,,,,,,,,,,,,,,,,117,0,117,0,,,,,,,,,,,,,,,,,,,,,,,,2.7,2.8000000000000003,3.3000000000000003,,,,,,,,,,,,,,,,,,,,,,,,,,,,,,,,,,,117,1187.824874263,4,7,3,9,2,6,1,5,1,0,2,1250.142512971,None,4,7,3,9,2,6,1,5,,1253.40792715,None,1253.40792715,None,1253.40792715,None,1253.40792715,None,1253.40792715,None,1253.40792715,None,1253.40792715,None,1253.40792715,None,1253.487853121,1253.9943770080001,1253.487853121,1253.9943770080001,1253.487853121,1253.9943770080001,None,None,down,1.4414464030001,1253.487853121,None,None,None,x,0.8659931649999635,1255.007325434,None,1255.913569071,None,,7,2,2,,,,,105,32,2022_Sep_08_1203,templeton_exp2A_SD,2020.2.10,37.51564285070233,
,,,,,,,,,,,,,,,,,,,,,,118,0,118,0,,,,,,,,,,,,,,,,,,,,,,,,1.7,1.8,2.3,,,,,,,,,,,,,,,,,,,,,,,,,,,,,,,,,,,118,1194.170378472,3,9,2,5,4,6,0,8,1,0,2,1256.486766183,None,3,9,2,5,4,6,0,8,,1258.7392399760001,None,1258.7392399760001,None,1258.7392399760001,None,1258.7392399760001,None,1258.7392399760001,None,1258.7392399760001,None,1258.7392399760001,None,1258.7392399760001,None,1258.845900779,1259.35235052,1258.845900779,1259.35235052,1258.845900779,1259.35235052,None,None,down,1.531403674000103,1258.845900779,None,None,None,z,0.24406788000010238,1260.445234554,None,1260.738385788,None,,8,2,2,,,,,105,32,2022_Sep_08_1203,templeton_exp2A_SD,2020.2.10,37.51564285070233,
,,,,,,,,,,,,,,,,,,,,,,119,0,119,0,,,,,,,,,,,,,,,,,,,,,,,,2.9000000000000004,1.6,2.9000000000000004,,,,,,,,,,,,,,,,,,,,,,,,,,,,,,,,,,,119,1198.9950528900001,0,6,2,9,4,8,1,5,0,1,2,1261.3115098810001,None,0,6,3,9,4,8,1,5,,1264.763636509,None,1264.763636509,None,1264.763636509,None,1264.763636509,None,1264.763636509,None,1264.763636509,None,1264.763636509,None,1264.763636509,None,1263.457454117,1263.963866342,1263.457454117,1263.963866342,1263.457454117,1263.963866342,None,None,left,1.5336650350000127,1264.763636509,None,None,None,x,0.7423018930001035,1266.363004409,None,1267.136017791,None,,9,3,3,,,,,105,32,2022_Sep_08_1203,templeton_exp2A_SD,2020.2.10,37.51564285070233,
,,,,,,,,,,,,,,,,,,,,,,120,0,120,0,,,,,,,,,,,,,,,,,,,,,,,,2.9000000000000004,1.6,2.9000000000000004,,,,,,,,,,,,,,,,,,,,,,,,,,,,,,,,,,,120,1220.117134926,2,5,1,8,4,6,3,7,0,1,4,1282.436916527,None,2,5,1,8,0,6,3,7,,1285.8889589780001,None,1285.8889589780001,None,1285.8889589780001,None,1285.8889589780001,None,1285.8889589780001,None,1285.8889589780001,None,1285.8889589780001,None,1285.8889589780001,None,1284.582755437,1285.0892644570001,1284.582755437,1285.0892644570001,1284.582755437,1285.0892644570001,None,None,left,1.7602320080000027,1285.8889589780001,None,None,None,x,0.3370480570001746,1287.728265244,None,1288.1014228000001,None,,10,4,4,,,,,105,32,2022_Sep_08_1203,templeton_exp2A_SD,2020.2.10,37.51564285070233,
,,,,,,,,,,,,,,,,,,,,,,121,0,121,0,,,,,,,,,,,,,,,,,,,,,,,,2.5,2.6,3.1,,,,,,,,,,,,,,,,,,,,,,,,,,,,,,,,,,,121,1226.358062654,1,8,4,7,3,9,2,5,1,1,2,1288.674577743,None,1,8,0,7,3,9,2,5,,1291.726718586,None,1291.726718586,None,1291.726718586,None,1291.726718586,None,1291.726718586,None,1291.726718586,None,1291.726718586,None,1291.726718586,None,1291.833310621,1292.339843104,1291.833310621,1292.339843104,1291.833310621,1292.339843104,None,None,down,1.9359881180000684,1291.833310621,None,None,None,x,0.4727112649998162,1293.832627059,None,1294.339084419,None,,11,4,4,,,,,105,32,2022_Sep_08_1203,templeton_exp2A_SD,2020.2.10,37.51564285070233,
,,,,,,,,,,,,,,,,,,,,,,122,0,122,0,,,,,,,,,,,,,,,,,,,,,,,,2.9000000000000004,1.6,2.9000000000000004,,,,,,,,,,,,,,,,,,,,,,,,,,,,,,,,,,,122,1232.596311611,2,6,1,8,4,7,0,9,0,0,3,1294.9122242170001,None,2,6,1,8,4,7,0,9,,1298.36419153,None,1298.36419153,None,1298.36419153,None,1298.36419153,None,1298.36419153,None,1298.36419153,None,1298.36419153,None,1298.36419153,None,1297.05805396,1297.564470137,1297.05805396,1297.564470137,1297.05805396,1297.564470137,None,None,down,1.5571047440000712,1298.36419153,None,None,None,z,0.39501612100002603,1299.990286528,None,1300.416752099,None,,12,5,5,,,,,105,32,2022_Sep_08_1203,templeton_exp2A_SD,2020.2.10,37.51564285070233,
,,,,,,,,,,,,,,,,,,,,,,123,0,123,0,,,,,,,,,,,,,,,,,,,,,,,,2.9000000000000004,1.6,2.9000000000000004,,,,,,,,,,,,,,,,,,,,,,,,,,,,,,,,,,,123,1238.6734033330001,1,5,4,6,2,7,3,8,0,1,2,1300.989906658,None,1,5,0,6,2,7,3,8,,1304.441932398,None,1304.441932398,None,1304.441932398,None,1304.441932398,None,1304.441932398,None,1304.441932398,None,1304.441932398,None,1304.441932398,None,1303.13576643,1303.6422406450001,1303.13576643,1303.6422406450001,1303.13576643,1303.6422406450001,None,None,left,2.0313150380000025,1304.441932398,None,None,None,x,0.3255670129999544,1306.547736914,None,1306.92094475,None,,13,6,6,,,,,105,32,2022_Sep_08_1203,templeton_exp2A_SD,2020.2.10,37.51564285070233,
,,,,,,,,,,,,,,,,,,,,,,124,0,124,0,,,,,,,,,,,,,,,,,,,,,,,,2.9,3.0,3.5,,,,,,,,,,,,,,,,,,,,,,,,,,,,,,,,,,,124,1245.178477816,2,9,0,8,1,5,4,7,1,0,5,1307.494127399,None,2,9,0,8,1,5,4,7,,1310.946137362,None,1310.946137362,None,1310.946137362,None,1310.946137362,None,1310.946137362,None,1310.946137362,None,1310.946137362,None,1310.946137362,None,1311.052674207,1311.559232745,1311.052674207,1311.559232745,1311.052674207,1311.559232745,None,None,down,1.3805713239999022,1311.052674207,None,None,None,x,0.37304919200005315,1312.492222741,None,1312.89202697,None,,14,6,6,,,,,105,32,2022_Sep_08_1203,templeton_exp2A_SD,2020.2.10,37.51564285070233,
,,,,,,,,,,,,,,,,,,,,,,125,0,125,0,,,,,,,,,,,,,,,,,,,,,,,,2.9000000000000004,1.6,2.9000000000000004,,,,,,,,,,,,,,,,,,,,,,,,,,,,,,,,,,,125,1251.14938231,4,5,3,7,0,8,2,6,0,1,5,1313.465140694,None,4,5,3,7,0,1,2,6,,1316.917215194,None,1316.917215194,None,1316.917215194,None,1316.917215194,None,1316.917215194,None,1316.917215194,None,1316.917215194,None,1316.917215194,None,1315.61099867,1316.1174741720001,1315.61099867,1316.1174741720001,1315.61099867,1316.1174741720001,None,None,left,2.2200839320000796,1316.917215194,None,None,None,z,2.151628384999867,1319.209671078,None,1321.3955075000001,None,,15,7,7,,,,,105,32,2022_Sep_08_1203,templeton_exp2A_SD,2020.2.10,37.51564285070233,
,,,,,,,,,,,,,,,,,,,,,,126,0,126,0,,,,,,,,,,,,,,,,,,,,,,,,3.3000000000000003,3.4000000000000004,3.9000000000000004,,,,,,,,,,,,,,,,,,,,,,,,,,,,,,,,,,,126,1259.652758953,0,5,3,9,1,7,4,8,1,1,7,1321.9685388770001,None,0,5,3,9,1,7,4,2,,1325.820458323,None,1325.820458323,None,1325.820458323,None,1325.820458323,None,1325.820458323,None,1325.820458323,None,1325.820458323,None,1325.820458323,None,1325.92712497,1326.433576252,1325.92712497,1326.433576252,1325.92712497,1326.433576252,None,None,down,1.7301800820000608,1325.92712497,None,None,None,z,0.21617274300001554,1327.7131272010001,None,1327.979715339,None,,16,7,7,,,,,105,32,2022_Sep_08_1203,templeton_exp2A_SD,2020.2.10,37.51564285070233,
,,,,,,,,,,,,,,,,,,,,,,127,0,127,0,,,,,,,,,,,,,,,,,,,,,,,,3.3000000000000003,3.4000000000000004,3.9000000000000004,,,,,,,,,,,,,,,,,,,,,,,,,,,,,,,,,,,127,1266.236797859,2,6,0,7,4,8,1,5,1,0,0,1328.5527604440001,None,2,6,0,7,4,8,1,5,,1332.404620556,None,1332.404620556,None,1332.404620556,None,1332.404620556,None,1332.404620556,None,1332.404620556,None,1332.404620556,None,1332.404620556,None,1332.5112971400001,1333.017718728,1332.5112971400001,1333.017718728,1332.5112971400001,1333.017718728,None,None,left,1.7219978360001278,1332.5112971400001,None,None,None,x,0.3280223350000142,1334.297289977,None,1334.670475415,None,,17,7,7,,,,,105,32,2022_Sep_08_1203,templeton_exp2A_SD,2020.2.10,37.51564285070233,
,,,,,,,,,,,,,,,,,,,,,,128,0,128,0,,,,,,,,,,,,,,,,,,,,,,,,1.9,2.0,2.5,,,,,,,,,,,,,,,,,,,,,,,,,,,,,,,,,,,128,1272.926886122,1,6,2,7,3,5,0,9,1,1,4,1335.243545721,None,1,6,2,7,4,5,0,9,,1337.682593682,None,1337.682593682,None,1337.682593682,None,1337.682593682,None,1337.682593682,None,1337.682593682,None,1337.682593682,None,1337.682593682,None,1337.789297535,1338.295769542,1337.789297535,1338.295769542,1337.789297535,1338.295769542,None,None,down,1.9400332959999105,1337.789297535,None,None,None,x,1.2847686810000596,1339.78853202,None,1341.121368749,None,,18,7,7,,,,,105,32,2022_Sep_08_1203,templeton_exp2A_SD,2020.2.10,37.51564285070233,
,,,,,,,,,,,,,,,,,,,,,,129,0,129,0,,,,,,,,,,,,,,,,,,,,,,,,2.9000000000000004,1.6,2.9000000000000004,,,,,,,,,,,,,,,,,,,,,,,,,,,,,,,,,,,129,1279.378146036,2,7,4,5,3,8,1,9,0,0,6,1341.694484633,None,2,7,4,5,3,8,1,9,,1345.1465143130001,None,1345.1465143130001,None,1345.1465143130001,None,1345.1465143130001,None,1345.1465143130001,None,1345.1465143130001,None,1345.1465143130001,None,1345.1465143130001,None,1343.840331532,1344.346802063,1343.840331532,1344.346802063,1343.840331532,1344.346802063,None,None,left,1.1747786149999229,1345.1465143130001,None,None,None,c,0.48196745399991414,1346.399334612,None,1346.9324271560001,None,,19,7,8,,,,,105,32,2022_Sep_08_1203,templeton_exp2A_SD,2020.2.10,37.51564285070233,
,,,,,,,,,,,,,,,,,,,,,,130,0,130,0,,,,,,,,,,,,,,,,,,,,,,,,1.7,1.8,2.3,,,,,,,,,,,,,,,,,,,,,,,,,,,,,,,,,,,130,1285.189466427,1,8,4,6,2,5,3,7,1,1,4,1347.50561397,None,1,8,4,6,0,5,3,7,,1349.758089908,None,1349.758089908,None,1349.758089908,None,1349.758089908,None,1349.758089908,None,1349.758089908,None,1349.758089908,None,1349.758089908,None,1349.8646858500001,1350.371151244,1349.8646858500001,1350.371151244,1349.8646858500001,1350.371151244,None,None,down,0.9686106610001843,1349.8646858500001,None,None,None,x,0.44903762600006303,1350.904266953,None,1351.384109161,None,,20,7,8,,,,,105,32,2022_Sep_08_1203,templeton_exp2A_SD,2020.2.10,37.51564285070233,
,,,,,,,,,,,,,,,,,,,,,,131,0,131,0,,,,,,,,,,,,,,,,,,,,,,,,2.9000000000000004,1.6,2.9000000000000004,,,,,,,,,,,,,,,,,,,,,,,,,,,,,,,,,,,131,1289.640398378,3,8,2,5,4,9,1,7,0,0,5,1351.957227078,None,3,8,2,5,4,9,1,7,,1355.409275525,None,1355.409275525,None,1355.409275525,None,1355.409275525,None,1355.409275525,None,1355.409275525,None,1355.409275525,None,1355.409275525,None,1354.10310575,1354.609514595,1354.10310575,1354.609514595,1354.10310575,1354.609514595,None,None,left,2.2320172300001104,1355.409275525,None,None,None,z,0.3395666929998242,1357.701748369,None,1358.074941825,None,,21,7,9,,,,,105,32,2022_Sep_08_1203,templeton_exp2A_SD,2020.2.10,37.51564285070233,
,,,,,,,,,,,,,,,,,,,,,,132,0,132,0,,,,,,,,,,,,,,,,,,,,,,,,2.7,2.8000000000000003,3.3000000000000003,,,,,,,,,,,,,,,,,,,,,,,,,,,,,,,,,,,132,1296.331810584,1,5,0,6,3,9,4,8,1,0,4,1358.648061269,None,1,5,0,6,3,9,4,8,,1361.913415129,None,1361.913415129,None,1361.913415129,None,1361.913415129,None,1361.913415129,None,1361.913415129,None,1361.913415129,None,1361.913415129,None,1361.993460511,1362.499929509,1361.993460511,1362.499929509,1361.993460511,1362.499929509,None,None,down,1.0638450720000492,1361.993460511,None,None,None,x,0.13630673000011484,1363.112995342,None,1363.2995801270001,None,,22,7,9,,,,,105,32,2022_Sep_08_1203,templeton_exp2A_SD,2020.2.10,37.51564285070233,
,,,,,,,,,,,,,,,,,,,,,,133,0,133,0,,,,,,,,,,,,,,,,,,,,,,,,2.9000000000000004,1.6,2.9000000000000004,,,,,,,,,,,,,,,,,,,,,,,,,,,,,,,,,,,133,1301.556076074,2,9,0,8,4,5,3,6,0,0,7,1363.872743233,None,2,9,0,8,4,5,3,6,,1367.324771769,None,1367.324771769,None,1367.324771769,None,1367.324771769,None,1367.324771769,None,1367.324771769,None,1367.324771769,None,1367.324771769,None,1366.0185620080001,1366.525075551,1366.0185620080001,1366.525075551,1366.0185620080001,1366.525075551,None,None,left,1.4525291029999607,1367.324771769,None,None,None,x,0.2691146199999821,1368.844187328,None,1369.164008784,None,,23,7,10,,,,,105,32,2022_Sep_08_1203,templeton_exp2A_SD,2020.2.10,37.51564285070233,
,,,,,,,,,,,,,,,,,,,,,,134,0,134,0,,,,,,,,,,,,,,,,,,,,,,,,2.7,2.8000000000000003,3.3000000000000003,,,,,,,,,,,,,,,,,,,,,,,,,,,,,,,,,,,134,1307.421240885,4,8,1,6,0,7,3,5,1,0,5,1369.73715316,None,4,8,1,6,0,7,3,5,,1373.002570801,None,1373.002570801,None,1373.002570801,None,1373.002570801,None,1373.002570801,None,1373.002570801,None,1373.002570801,None,1373.002570801,None,1373.082514268,1373.58906141,1373.082514268,1373.58906141,1373.082514268,1373.58906141,None,None,down,3.438732416999983,1373.082514268,None,None,None,x,0.18137722100004794,1376.587927721,None,1376.801147573,None,,24,7,10,,,,,105,32,2022_Sep_08_1203,templeton_exp2A_SD,2020.2.10,37.51564285070233,
,,,,,,,,,,,,,,,,,,,,,,135,0,135,0,,,,,,,,,,,,,,,,,,,,,,,,2.1,2.2,2.7,,,,,,,,,,,,,,,,,,,,,,,,,,,,,,,,,,,135,1326.742912008,2,9,3,7,1,8,4,5,1,1,0,1389.063171345,None,0,9,3,7,1,8,4,5,,1391.715538567,None,1391.715538567,None,1391.715538567,None,1391.715538567,None,1391.715538567,None,1391.715538567,None,1391.715538567,None,1391.715538567,None,1391.822110858,1392.32862312,1391.822110858,1392.32862312,1391.822110858,1392.32862312,None,None,down,1.1791861690001042,1391.822110858,None,None,None,x,7.5263348620001125,1393.0749655490001,None,1400.645494882,None,,25,7,10,,,,,105,32,2022_Sep_08_1203,templeton_exp2A_SD,2020.2.10,37.51564285070233,
,,,,,,,,,,,,,,,,,,,,,,136,0,136,0,,,,,,,,,,,,,,,,,,,,,,,,3.5,3.6,4.1,,,,,,,,,,,,,,,,,,,,,,,,,,,,,,,,,,,136,1338.902986013,0,9,2,7,4,8,3,6,1,1,6,1401.218598796,None,0,9,2,7,4,8,1,6,,1405.283730813,None,1405.283730813,None,1405.283730813,None,1405.283730813,None,1405.283730813,None,1405.283730813,None,1405.283730813,None,1405.283730813,None,1405.3636243170001,1405.870116426,1405.3636243170001,1405.870116426,1405.3636243170001,1405.870116426,None,None,left,3.8536704089999603,1405.3636243170001,None,None,None,c,1.7350925410000855,1409.282211451,None,1411.06814832,None,,26,7,10,,,,,105,32,2022_Sep_08_1203,templeton_exp2A_SD,2020.2.10,37.51564285070233,
,,,,,,,,,,,,,,,,,,,,,,137,0,137,0,,,,,,,,,,,,,,,,,,,,,,,,2.5,2.6,3.1,,,,,,,,,,,,,,,,,,,,,,,,,,,,,,,,,,,137,1349.325320971,4,9,3,7,1,5,0,8,1,1,3,1411.64131107,None,4,9,3,2,1,5,0,8,,1414.693490166,None,1414.693490166,None,1414.693490166,None,1414.693490166,None,1414.693490166,None,1414.693490166,None,1414.693490166,None,1414.693490166,None,1414.8000072930001,1415.306576936,1414.8000072930001,1415.306576936,1414.8000072930001,1415.306576936,None,None,down,2.8973225250001633,1414.8000072930001,None,None,None,x,0.25830753499985804,1417.758994905,None,1418.052178028,None,,27,7,10,,,,,105,32,2022_Sep_08_1203,templeton_exp2A_SD,2020.2.10,37.51564285070233,
,,,,,,,,,,,,,,,,,,,,,,138,0,138,0,,,,,,,,,,,,,,,,,,,,,,,,3.3000000000000003,3.4000000000000004,3.9000000000000004,,,,,,,,,,,,,,,,,,,,,,,,,,,,,,,,,,,138,1356.309091527,2,9,0,8,1,7,4,5,1,0,2,1418.625386232,None,2,9,0,8,1,7,4,5,,1422.477214609,None,1422.477214609,None,1422.477214609,None,1422.477214609,None,1422.477214609,None,1422.477214609,None,1422.477214609,None,1422.477214609,None,1422.583832611,1423.090204011,1422.583832611,1423.090204011,1422.583832611,1423.090204011,None,None,down,2.0334736060001433,1422.583832611,None,None,None,x,0.16762723299984827,1424.689684374,None,1424.902908569,None,,28,7,10,,,,,105,32,2022_Sep_08_1203,templeton_exp2A_SD,2020.2.10,37.51564285070233,
