trials_2.thisRepN,trials_2.thisTrialN,trials_2.thisN,trials_2.thisIndex,Used_image_1,Used_image_2,Used_image_3,Used_image_4,Used_image_5,Used_image_6,Used_image_7,Used_image_8,Unused_image_1,Unused_image_2,trials.thisRepN,trials.thisTrialN,trials.thisN,trials.thisIndex,trials_4.thisRepN,trials_4.thisTrialN,trials_4.thisN,trials_4.thisIndex,trials_10.thisRepN,trials_10.thisTrialN,trials_10.thisN,trials_10.thisIndex,welcome.started,welcome.stopped,pointer_dot_0.started,pointer_dot_0.stopped,pointer_dot_1.started,pointer_dot_1.stopped,pointer_dot_2.started,pointer_dot_2.stopped,SD_image.started,SD_image.stopped,memDisplayOnTimePractice,mem_image_0_practice,mem_image_1_practice,mem_image_2_practice,mem_image_3_practice,mem_image_4_practice,mem_image_5_practice,mem_image_6_practice,mem_image_7_practice,retention_interval_practice,retro_0_post_1_practice,change_or_no_practice,cue_location_practice,mem_display_to_test_array_duration_s,mem_display_to_cue_duration_s,routine_duration_s,array_image_1f.started,array_image_1f.stopped,array_image_2f.started,array_image_2f.stopped,array_image_3f.started,array_image_3f.stopped,array_image_4f.started,array_image_4f.stopped,array_image_5f.started,array_image_5f.stopped,array_image_6f.started,array_image_6f.stopped,array_image_7f.started,array_image_7f.stopped,array_image_8f.started,array_image_8f.stopped,pointer_dot_0b.started,pointer_dot_0b.stopped,pointer_dot_1b.started,pointer_dot_1b.stopped,pointer_dot_2b.started,pointer_dot_2b.stopped,sd_practice_resp.keys,sd_practice_resp.rt,sd_practice_resp.started,sd_practice_resp.stopped,text_10.started,text_10.stopped,conf_practice_resp.keys,conf_practice_resp.rt,conf_practice_resp.started,conf_practice_resp.stopped,image.started,image.stopped,training_trial_index,memDisplayOnTimeTraining,mem_image_0_training,mem_image_1_training,mem_image_2_training,mem_image_3_training,mem_image_4_training,mem_image_5_training,mem_image_6_training,mem_image_7_training,retro_0_post_1_training,change_or_no_training,cue_location_training,array_image_1l.started,array_image_1l.stopped,test_image_0_training,test_image_1_training,test_image_2_training,test_image_3_training,test_image_4_training,test_image_5_training,test_image_6_training,test_image_7_training,consecutive_correct_retro_short,array_image_1m.started,array_image_1m.stopped,array_image_2m.started,array_image_2m.stopped,array_image_3m.started,array_image_3m.stopped,array_image_4m.started,array_image_4m.stopped,array_image_5m.started,array_image_5m.stopped,array_image_6m.started,array_image_6m.stopped,array_image_7m.started,array_image_7m.stopped,array_image_8m.started,array_image_8m.stopped,pointer_dot_0d.started,pointer_dot_0d.stopped,pointer_dot_1d.started,pointer_dot_1d.stopped,pointer_dot_2d.started,pointer_dot_2d.stopped,reminder_training.started,reminder_training.stopped,sd_training_resp.keys,sd_training_resp.rt,sd_training_resp.started,sd_training_resp.stopped,text_15.started,text_15.stopped,conf_training_resp.keys,conf_training_resp.rt,conf_training_resp.started,conf_training_resp.stopped,text.started,text.stopped,short_interval_training_finished,training_trial_index_long_this_block,correct_retro_long_this_block,retro_trials_long_this_block,long_interval_block_finished,long_block_retro_acc,reached_criterion,run_out_of_trials,participant,mapping,date,expName,psychopyVersion,frameRate,
,,,,,,,,,,,,,,0,0,0,0,,,,,,,,,20.69459327700001,None,194.855313098,None,194.855313098,None,194.855313098,None,224.52406258499997,None,253.746544622,4,9,0,7,2,6,1,5,1.6,0,0,6,2.9000000000000004,1.6,2.9000000000000004,277.930487295,None,277.930487295,None,277.930487295,None,277.930487295,None,277.930487295,None,277.930487295,None,277.930487295,None,277.930487295,None,276.624339375,277.130800077,276.624339375,277.130800077,276.624339375,277.130800077,down,0.7341722510000182,277.930487295,None,278.730237521,None,c,16.15838433900001,278.730237521,None,278.730237521,None,,,,,,,,,,,,,,,,,,,,,,,,,,,,,,,,,,,,,,,,,,,,,,,,,,,,,,,,,,,,,,,,,,,,,103,32,2022_Sep_08_1409,templeton_exp2A_SD,2020.2.10,37.507892785878504,
,,,,,,,,,,,,,,1,0,1,0,,,,,,,,,,,,,,,,,,,287.855832485,0,7,2,5,4,6,3,9,1.6,0,0,4,2.9000000000000004,1.6,2.9000000000000004,312.037657324,None,312.037657324,None,312.037657324,None,312.037657324,None,312.037657324,None,312.037657324,None,312.037657324,None,312.037657324,None,310.731403112,311.23792236599996,310.731403112,311.23792236599996,310.731403112,311.23792236599996,left,2.7468963540000004,312.037657324,None,314.849886277,None,x,1.6547921420000193,314.849886277,None,314.849886277,None,,,,,,,,,,,,,,,,,,,,,,,,,,,,,,,,,,,,,,,,,,,,,,,,,,,,,,,,,,,,,,,,,,,,,103,32,2022_Sep_08_1409,templeton_exp2A_SD,2020.2.10,37.507892785878504,
,,,,,,,,,,,,,,2,0,2,0,,,,,,,,,,,,,,,,,,,303.565540101,0,9,4,6,3,5,1,8,1.6,1,1,6,1.5,1.6,2.1,326.33883127999997,None,326.33883127999997,None,326.33883127999997,None,326.33883127999997,None,326.33883127999997,None,326.33883127999997,None,326.33883127999997,None,326.33883127999997,None,326.44549825,326.951983839,326.44549825,326.951983839,326.44549825,326.951983839,down,2.0911025369999834,326.44549825,None,328.578015199,None,x,3.1106547900000123,328.578015199,None,328.578015199,None,,,,,,,,,,,,,,,,,,,,,,,,,,,,,,,,,,,,,,,,,,,,,,,,,,,,,,,,,,,,,,,,,,,,,103,32,2022_Sep_08_1409,templeton_exp2A_SD,2020.2.10,37.507892785878504,
,,,,,,,,,,,,,,3,0,3,0,,,,,,,,,,,,,,,,,,,313.686490239,3,5,2,6,4,8,0,7,1.6,1,1,3,1.5,1.6,2.1,336.481670358,None,336.481670358,None,336.481670358,None,336.481670358,None,336.481670358,None,336.481670358,None,336.481670358,None,336.481670358,None,336.56158776399997,337.06807270999997,336.56158776399997,337.06807270999997,336.56158776399997,337.06807270999997,left,2.423078117999978,336.56158776399997,None,339.014066926,None,z,2.05060540300002,339.014066926,None,339.014066926,None,,,,,,,,,,,,,,,,,,,,,,,,,,,,,,,,,,,,,,,,,,,,,,,,,,,,,,,,,,,,,,,,,,,,,103,32,2022_Sep_08_1409,templeton_exp2A_SD,2020.2.10,37.507892785878504,
,,,,,,,,,,,,,,4,0,4,0,,,,,,,,,,,,,,,,,,,322.562181698,2,9,4,6,0,5,1,7,1.6,1,1,2,1.5,1.6,2.1,345.331625217,None,345.331625217,None,345.331625217,None,345.331625217,None,345.331625217,None,345.331625217,None,345.331625217,None,345.331625217,None,345.438259208,345.944766248,345.438259208,345.944766248,345.438259208,345.944766248,down,2.050350521999974,345.438259208,None,347.51746115099996,None,z,0.9392015039999819,347.51746115099996,None,347.51746115099996,None,,,,,,,,,,,,,,,,,,,,,,,,,,,,,,,,,,,,,,,,,,,,,,,,,,,,,,,,,,,,,,,,,,,,,103,32,2022_Sep_08_1409,templeton_exp2A_SD,2020.2.10,37.507892785878504,
,,,,,,,,,,,,,,5,0,5,0,,,,,,,,,,,,,,,,,,,329.70677852800003,4,8,2,9,1,6,3,7,1.6,1,1,5,1.5,1.6,2.1,352.502296328,None,352.502296328,None,352.502296328,None,352.502296328,None,352.502296328,None,352.502296328,None,352.502296328,None,352.502296328,None,352.582256203,353.088682776,352.582256203,353.088682776,352.582256203,353.088682776,down,1.5943943869999657,352.582256203,None,354.20829695,None,z,1.38432803500001,354.20829695,None,354.20829695,None,,,,,,,,,,,,,,,,,,,,,,,,,,,,,,,,,,,,,,,,,,,,,,,,,,,,,,,,,,,,,,,,,,,,,103,32,2022_Sep_08_1409,templeton_exp2A_SD,2020.2.10,37.507892785878504,
,,,,,,,,,,,,,,6,0,6,0,,,,,,,,,,,,,,,,,,,336.530692344,2,8,3,9,4,5,0,6,1.6,0,0,2,2.9000000000000004,1.6,2.9000000000000004,360.71250605,None,360.71250605,None,360.71250605,None,360.71250605,None,360.71250605,None,360.71250605,None,360.71250605,None,360.71250605,None,359.40625811,359.912783926,359.40625811,359.912783926,359.40625811,359.912783926,down,1.864138658999991,360.71250605,None,362.605061409,None,z,0.7076128639999979,362.605061409,None,362.605061409,None,,,,,,,,,,,,,,,,,,,,,,,,,,,,,,,,,,,,,,,,,,,,,,,,,,,,,,,,,,,,,,,,,,,,,103,32,2022_Sep_08_1409,templeton_exp2A_SD,2020.2.10,37.507892785878504,
,,,,,,,,,,,,,,,,,,,,,,0,0,0,0,,,,,,,,,,,,,,,,,,,,,,,,2.05,0.75,2.05,,,,,,,,,,,,,,,,,,,,,,,,,,,,,,,,,,,0,363.175790891,4,5,2,9,0,8,1,6,0,1,3,383.903620883,None,4,5,2,3,0,8,1,6,1,386.516064725,None,386.516064725,None,386.516064725,None,386.516064725,None,386.516064725,None,386.516064725,None,386.516064725,None,386.516064725,None,385.209791533,385.716385411,385.209791533,385.716385411,385.209791533,385.716385411,None,None,left,0.9805922810000425,386.516064725,None,None,None,x,6.29563495299999,387.56903035299996,None,393.91324631,None,,,,,,,,,103,32,2022_Sep_08_1409,templeton_exp2A_SD,2020.2.10,37.507892785878504,
,,,,,,,,,,,,,,,,,,,,,,1,0,1,0,,,,,,,,,,,,,,,,,,,,,,,,2.05,0.75,2.05,,,,,,,,,,,,,,,,,,,,,,,,,,,,,,,,,,,1,373.760871676,2,7,4,6,0,5,3,8,0,1,2,394.486306201,None,2,7,1,6,0,5,3,8,2,397.085420668,None,397.085420668,None,397.085420668,None,397.085420668,None,397.085420668,None,397.085420668,None,397.085420668,None,397.085420668,None,395.80584542599996,396.312343929,395.80584542599996,396.312343929,395.80584542599996,396.312343929,None,None,left,0.8992529059999583,397.085420668,None,None,None,z,0.6355960680000408,398.04503145399997,None,398.71145118699997,None,,,,,,,,,103,32,2022_Sep_08_1409,templeton_exp2A_SD,2020.2.10,37.507892785878504,
,,,,,,,,,,,,,,,,,,,,,,2,0,2,0,,,,,,,,,,,,,,,,,,,,,,,,2.05,0.75,2.05,,,,,,,,,,,,,,,,,,,,,,,,,,,,,,,,,,,2,378.55838067599996,4,6,0,8,1,9,3,5,0,0,7,399.28450945299994,None,4,6,0,8,1,9,3,5,0,401.883580919,None,401.883580919,None,401.883580919,None,401.883580919,None,401.883580919,None,401.883580919,None,401.883580919,None,401.883580919,None,400.577391112,401.08387491199994,400.577391112,401.08387491199994,400.577391112,401.08387491199994,None,None,left,2.43712303399991,401.883580919,None,None,None,x,2.8273320380000087,404.389305249,None,407.26814747699996,None,,,,,,,,,103,32,2022_Sep_08_1409,templeton_exp2A_SD,2020.2.10,37.507892785878504,
,,,,,,,,,,,,,,,,,,,,,,3,0,3,0,,,,,,,,,,,,,,,,,,,,,,,,2.05,0.75,2.05,,,,,,,,,,,,,,,,,,,,,,,,,,,,,,,,,,,3,387.11508074100004,2,7,3,6,4,5,0,8,0,1,2,407.84126710299995,None,2,7,1,6,4,5,0,8,1,410.440334355,None,410.440334355,None,410.440334355,None,410.440334355,None,410.440334355,None,410.440334355,None,410.440334355,None,410.440334355,None,409.160750646,409.66728336099993,409.160750646,409.66728336099993,409.160750646,409.66728336099993,None,None,left,0.9363150200000518,410.440334355,None,None,None,z,0.5314498000000185,411.45322494999994,None,412.01307763599993,None,,,,,,,,,103,32,2022_Sep_08_1409,templeton_exp2A_SD,2020.2.10,37.507892785878504,
,,,,,,,,,,,,,,,,,,,,,,4,0,4,0,,,,,,,,,,,,,,,,,,,,,,,,0.65,0.75,1.25,,,,,,,,,,,,,,,,,,,,,,,,,,,,,,,,,,,4,391.858993144,1,7,2,9,0,5,4,6,1,1,1,412.586109147,None,1,3,2,9,0,5,4,6,1,413.799067586,None,413.799067586,None,413.799067586,None,413.799067586,None,413.799067586,None,413.799067586,None,413.799067586,None,413.799067586,None,413.87903779499993,414.385513178,413.87903779499993,414.385513178,413.87903779499993,414.385513178,None,None,left,3.897617017000016,413.87903779499993,None,None,None,x,1.1898109679999607,417.850864054,None,419.077059933,None,,,,,,,,,103,32,2022_Sep_08_1409,templeton_exp2A_SD,2020.2.10,37.507892785878504,
,,,,,,,,,,,,,,,,,,,,,,5,0,5,0,,,,,,,,,,,,,,,,,,,,,,,,2.05,0.75,2.05,,,,,,,,,,,,,,,,,,,,,,,,,,,,,,,,,,,5,398.92413975500006,3,9,4,8,0,5,2,7,0,0,1,419.65017711400003,None,3,9,4,8,0,5,2,7,2,422.24919238099994,None,422.24919238099994,None,422.24919238099994,None,422.24919238099994,None,422.24919238099994,None,422.24919238099994,None,422.24919238099994,None,422.24919238099994,None,420.943044998,421.44943531499996,420.943044998,421.44943531499996,420.943044998,421.44943531499996,None,None,down,1.0474656139999752,422.24919238099994,None,None,None,c,1.2638633419999223,423.36880588299994,None,424.674891851,None,,,,,,,,,103,32,2022_Sep_08_1409,templeton_exp2A_SD,2020.2.10,37.507892785878504,
,,,,,,,,,,,,,,,,,,,,,,6,0,6,0,,,,,,,,,,,,,,,,,,,,,,,,2.05,0.75,2.05,,,,,,,,,,,,,,,,,,,,,,,,,,,,,,,,,,,6,404.52251772700004,4,8,0,7,3,9,1,6,0,0,7,425.24806099700004,None,4,8,0,7,3,9,1,6,0,427.84707527699993,None,427.84707527699993,None,427.84707527699993,None,427.84707527699993,None,427.84707527699993,None,427.84707527699993,None,427.84707527699993,None,427.84707527699993,None,426.56755923699995,427.07398033100003,426.56755923699995,427.07398033100003,426.56755923699995,427.07398033100003,435.817388497,None,left,8.033538940000085,427.84707527699993,None,None,None,c,0.23400216799996088,435.95067044099994,None,436.21724669,None,,,,,,,,,103,32,2022_Sep_08_1409,templeton_exp2A_SD,2020.2.10,37.507892785878504,
,,,,,,,,,,,,,,,,,,,,,,7,0,7,0,,,,,,,,,,,,,,,,,,,,,,,,0.65,0.75,1.25,,,,,,,,,,,,,,,,,,,,,,,,,,,,,,,,,,,7,416.063811363,4,5,2,9,1,8,3,6,1,0,0,436.790261523,None,4,5,2,9,1,8,3,6,0,438.00325199199995,None,438.00325199199995,None,438.00325199199995,None,438.00325199199995,None,438.00325199199995,None,438.00325199199995,None,438.00325199199995,None,438.00325199199995,None,438.0832004,438.58958763199996,438.0832004,438.58958763199996,438.0832004,438.58958763199996,None,None,down,1.4694567340000049,438.0832004,None,None,None,x,1.63543386799995,439.629237632,None,441.308589675,None,,,,,,,,,103,32,2022_Sep_08_1409,templeton_exp2A_SD,2020.2.10,37.507892785878504,
,,,,,,,,,,,,,,,,,,,,,,8,0,8,0,,,,,,,,,,,,,,,,,,,,,,,,2.05,0.75,2.05,,,,,,,,,,,,,,,,,,,,,,,,,,,,,,,,,,,8,421.155968323,1,8,3,7,0,9,2,6,0,1,3,441.88175301,None,1,8,3,4,0,9,2,6,1,444.48078846,None,444.48078846,None,444.48078846,None,444.48078846,None,444.48078846,None,444.48078846,None,444.48078846,None,444.48078846,None,443.20125702099995,443.70767031899993,443.20125702099995,443.70767031899993,443.20125702099995,443.70767031899993,None,None,left,1.7758712190000097,444.48078846,None,None,None,z,1.1685685859999921,446.320076268,None,447.519634137,None,,,,,,,,,103,32,2022_Sep_08_1409,templeton_exp2A_SD,2020.2.10,37.507892785878504,
,,,,,,,,,,,,,,,,,,,,,,9,0,9,0,,,,,,,,,,,,,,,,,,,,,,,,0.65,0.75,1.25,,,,,,,,,,,,,,,,,,,,,,,,,,,,,,,,,,,9,427.36694331399997,0,5,2,7,4,8,1,6,1,1,1,448.09261747200003,None,0,3,2,7,4,8,1,6,1,449.305575128,None,449.305575128,None,449.305575128,None,449.305575128,None,449.305575128,None,449.305575128,None,449.305575128,None,449.305575128,None,449.41218463099995,449.918730903,449.41218463099995,449.918730903,449.41218463099995,449.918730903,None,None,left,0.8844713710000178,449.41218463099995,None,None,None,z,0.8688688580000417,450.37179434300003,None,451.27818925199995,None,,,,,,,,,103,32,2022_Sep_08_1409,templeton_exp2A_SD,2020.2.10,37.507892785878504,
,,,,,,,,,,,,,,,,,,,,,,10,0,10,0,,,,,,,,,,,,,,,,,,,,,,,,0.65,0.75,1.25,,,,,,,,,,,,,,,,,,,,,,,,,,,,,,,,,,,10,431.12960829099995,3,5,4,7,2,8,0,6,1,1,6,451.864677058,None,3,5,4,7,2,8,1,6,1,453.07750878699994,None,453.07750878699994,None,453.07750878699994,None,453.07750878699994,None,453.07750878699994,None,453.07750878699994,None,453.07750878699994,None,453.07750878699994,None,453.184143876,453.69056233599997,453.184143876,453.69056233599997,453.184143876,453.69056233599997,None,None,down,1.6885161229999994,453.184143876,None,None,None,x,0.5372686320000639,454.943393504,None,455.529814033,None,,,,,,,,,103,32,2022_Sep_08_1409,templeton_exp2A_SD,2020.2.10,37.507892785878504,
,,,,,,,,,,,,,,,,,,,,,,11,0,11,0,,,,,,,,,,,,,,,,,,,,,,,,2.05,0.75,2.05,,,,,,,,,,,,,,,,,,,,,,,,,,,,,,,,,,,11,435.37715468700003,4,5,1,9,0,8,3,7,0,1,0,456.10305233400004,None,2,5,1,9,0,8,3,7,2,458.702067433,None,458.702067433,None,458.702067433,None,458.702067433,None,458.702067433,None,458.702067433,None,458.702067433,None,458.702067433,None,457.42254494199994,457.929007221,457.42254494199994,457.929007221,457.42254494199994,457.929007221,None,None,left,1.0506372419999934,458.702067433,None,None,None,z,0.4110907539999289,459.821581399,None,460.274746964,None,,,,,,,,,103,32,2022_Sep_08_1409,templeton_exp2A_SD,2020.2.10,37.507892785878504,
,,,,,,,,,,,,,,,,,,,,,,12,0,12,0,,,,,,,,,,,,,,,,,,,,,,,,2.05,0.75,2.05,,,,,,,,,,,,,,,,,,,,,,,,,,,,,,,,,,,12,440.12151885599997,0,9,4,8,2,5,3,7,0,1,3,460.84789378999994,None,0,9,4,1,2,5,3,7,3,463.44691416699993,None,463.44691416699993,None,463.44691416699993,None,463.44691416699993,None,463.44691416699993,None,463.44691416699993,None,463.44691416699993,None,463.44691416699993,None,462.140697832,462.647217361,462.140697832,462.647217361,462.140697832,462.647217361,None,None,left,0.897742935999986,463.44691416699993,None,None,None,z,0.3381728460000204,464.406502102,None,464.77975495500004,None,,,,,,,,,103,32,2022_Sep_08_1409,templeton_exp2A_SD,2020.2.10,37.507892785878504,
,,,,,,,,,,,,,,,,,,,,,,13,0,13,0,,,,,,,,,,,,,,,,,,,,,,,,0.65,0.75,1.25,,,,,,,,,,,,,,,,,,,,,,,,,,,,,,,,,,,13,444.62665305400003,4,6,2,8,1,7,0,9,1,1,2,465.35282279,None,4,6,3,8,1,7,0,9,3,466.56573931699995,None,466.56573931699995,None,466.56573931699995,None,466.56573931699995,None,466.56573931699995,None,466.56573931699995,None,466.56573931699995,None,466.56573931699995,None,466.67232698299995,467.178836824,466.67232698299995,467.178836824,466.67232698299995,467.178836824,None,None,left,1.0163262879999593,466.67232698299995,None,None,None,z,0.25939578300005905,467.765231545,None,468.05846517199996,None,,,,,,,,,103,32,2022_Sep_08_1409,templeton_exp2A_SD,2020.2.10,37.507892785878504,
,,,,,,,,,,,,,,,,,,,,,,14,0,14,0,,,,,,,,,,,,,,,,,,,,,,,,0.65,0.75,1.25,,,,,,,,,,,,,,,,,,,,,,,,,,,,,,,,,,,14,447.904858072,2,5,0,8,1,9,4,6,1,1,6,468.63165023399995,None,2,5,0,8,1,9,3,6,3,469.844496638,None,469.844496638,None,469.844496638,None,469.844496638,None,469.844496638,None,469.844496638,None,469.844496638,None,469.844496638,None,469.92440938799996,470.430942772,469.92440938799996,470.430942772,469.92440938799996,470.430942772,None,None,down,1.8202402840000786,469.92440938799996,None,None,None,c,0.5835591149999573,471.81711222399997,None,472.430168471,None,,,,,,,,,103,32,2022_Sep_08_1409,templeton_exp2A_SD,2020.2.10,37.507892785878504,
,,,,,,,,,,,,,,,,,,,,,,15,0,15,0,,,,,,,,,,,,,,,,,,,,,,,,2.05,0.75,2.05,,,,,,,,,,,,,,,,,,,,,,,,,,,,,,,,,,,15,462.096473713,2,5,3,6,0,9,1,8,0,0,7,482.826189538,None,2,5,3,6,0,9,1,8,4,485.42521963,None,485.42521963,None,485.42521963,None,485.42521963,None,485.42521963,None,485.42521963,None,485.42521963,None,485.42521963,None,484.119108462,484.625523787,484.119108462,484.625523787,484.119108462,484.625523787,None,None,down,0.7674279719999504,485.42521963,None,None,None,c,0.5490644509999356,486.25160838499994,None,486.838061402,None,,,,,,,,,103,32,2022_Sep_08_1409,templeton_exp2A_SD,2020.2.10,37.507892785878504,
,,,,,,,,,,,,,,,,,,,,,,16,0,16,0,,,,,,,,,,,,,,,,,,,,,,,,2.05,0.75,2.05,,,,,,,,,,,,,,,,,,,,,,,,,,,,,,,,,,,16,466.685280937,4,7,3,8,0,9,2,6,0,0,0,487.41112059599993,None,4,7,3,8,0,9,2,6,5,490.01015153699996,None,490.01015153699996,None,490.01015153699996,None,490.01015153699996,None,490.01015153699996,None,490.01015153699996,None,490.01015153699996,None,490.01015153699996,None,488.703975195,489.21044990300004,488.703975195,489.21044990300004,488.703975195,489.21044990300004,None,None,down,1.4625425369999903,490.01015153699996,None,None,None,c,0.4870613790000107,491.52960870899994,None,492.062734742,None,,,,,,,,,103,32,2022_Sep_08_1409,templeton_exp2A_SD,2020.2.10,37.507892785878504,
,,,,,,,,,,,,,,,,,,,,,,17,0,17,0,,,,,,,,,,,,,,,,,,,,,,,,0.65,0.75,1.25,,,,,,,,,,,,,,,,,,,,,,,,,,,,,,,,,,,17,471.908833048,4,6,0,9,2,7,3,5,1,1,2,492.635812235,None,4,6,1,9,2,7,3,5,5,493.848728155,None,493.848728155,None,493.848728155,None,493.848728155,None,493.848728155,None,493.848728155,None,493.848728155,None,493.848728155,None,493.92876374,494.43519698599994,493.92876374,494.43519698599994,493.92876374,494.43519698599994,None,None,left,1.2399078930000087,493.92876374,None,None,None,x,0.7098095599999397,495.23486337500003,None,495.98124538499997,None,,,,,,,,,103,32,2022_Sep_08_1409,templeton_exp2A_SD,2020.2.10,37.507892785878504,
,,,,,,,,,,,,,,,,,,,,,,18,0,18,0,,,,,,,,,,,,,,,,,,,,,,,,0.65,0.75,1.25,,,,,,,,,,,,,,,,,,,,,,,,,,,,,,,,,,,18,475.82861531699996,1,8,2,9,0,5,4,7,1,0,7,496.55432804,None,1,8,2,9,0,5,4,7,5,497.767252825,None,497.767252825,None,497.767252825,None,497.767252825,None,497.767252825,None,497.767252825,None,497.767252825,None,497.767252825,None,497.87383142600004,498.38030164500003,497.87383142600004,498.38030164500003,497.87383142600004,498.38030164500003,None,None,left,1.5428215399999772,497.87383142600004,None,None,None,x,0.47938794499998494,499.47327891399993,None,499.979755511,None,,,,,,,,,103,32,2022_Sep_08_1409,templeton_exp2A_SD,2020.2.10,37.507892785878504,
,,,,,,,,,,,,,,,,,,,,,,19,0,19,0,,,,,,,,,,,,,,,,,,,,,,,,0.65,0.75,1.25,,,,,,,,,,,,,,,,,,,,,,,,,,,,,,,,,,,19,479.82691593900006,4,5,1,8,3,7,0,6,1,1,0,500.55280087200003,None,2,5,1,8,3,7,0,6,5,501.765689814,None,501.765689814,None,501.765689814,None,501.765689814,None,501.765689814,None,501.765689814,None,501.765689814,None,501.765689814,None,501.87232047500004,502.37882105099993,501.87232047500004,502.37882105099993,501.87232047500004,502.37882105099993,None,None,left,1.3363349470000685,501.87232047500004,None,None,None,z,0.37156011399997624,503.285103508,None,503.684929397,None,,,,,,,,,103,32,2022_Sep_08_1409,templeton_exp2A_SD,2020.2.10,37.507892785878504,
,,,,,,,,,,,,,,,,,,,,,,20,0,20,0,,,,,,,,,,,,,,,,,,,,,,,,0.65,0.75,1.25,,,,,,,,,,,,,,,,,,,,,,,,,,,,,,,,,,,20,483.53235260300005,2,7,0,5,4,9,3,8,1,0,3,504.25808639,None,2,7,0,5,4,9,3,8,5,505.47094685799993,None,505.47094685799993,None,505.47094685799993,None,505.47094685799993,None,505.47094685799993,None,505.47094685799993,None,505.47094685799993,None,505.47094685799993,None,505.55096629,506.05735703899995,505.55096629,506.05735703899995,505.55096629,506.05735703899995,None,None,left,1.513687955000023,505.55096629,None,None,None,x,0.8290129140000317,507.123652537,None,508.003299663,None,,,,,,,,,103,32,2022_Sep_08_1409,templeton_exp2A_SD,2020.2.10,37.507892785878504,
,,,,,,,,,,,,,,,,,,,,,,21,0,21,0,,,,,,,,,,,,,,,,,,,,,,,,0.65,0.75,1.25,,,,,,,,,,,,,,,,,,,,,,,,,,,,,,,,,,,21,487.850527393,3,6,4,7,2,9,0,8,1,1,3,508.57644690899997,None,3,6,4,1,2,9,0,8,5,509.78923117299996,None,509.78923117299996,None,509.78923117299996,None,509.78923117299996,None,509.78923117299996,None,509.78923117299996,None,509.78923117299996,None,509.78923117299996,None,509.895974284,510.40245991999996,509.895974284,510.40245991999996,509.895974284,510.40245991999996,None,None,down,1.1846914870000091,509.895974284,None,None,None,z,0.4678236239999478,511.148849325,None,511.65525301,None,,,,,,,,,103,32,2022_Sep_08_1409,templeton_exp2A_SD,2020.2.10,37.507892785878504,
,,,,,,,,,,,,,,,,,,,,,,22,0,22,0,,,,,,,,,,,,,,,,,,,,,,,,2.05,0.75,2.05,,,,,,,,,,,,,,,,,,,,,,,,,,,,,,,,,,,22,491.50250055900005,4,7,0,5,3,6,2,8,0,0,5,512.228398269,None,4,7,0,5,3,6,2,8,0,514.827412667,None,514.827412667,None,514.827412667,None,514.827412667,None,514.827412667,None,514.827412667,None,514.827412667,None,514.827412667,None,513.521267219,514.02770541,513.521267219,514.02770541,513.521267219,514.02770541,None,None,left,1.9651993950000133,514.827412667,None,None,None,x,0.6033467860000883,516.853310776,None,517.493065596,None,,,,,,,,,103,32,2022_Sep_08_1409,templeton_exp2A_SD,2020.2.10,37.507892785878504,
,,,,,,,,,,,,,,,,,,,,,,23,0,23,0,,,,,,,,,,,,,,,,,,,,,,,,0.65,0.75,1.25,,,,,,,,,,,,,,,,,,,,,,,,,,,,,,,,,,,23,497.34015281999996,3,8,0,9,1,5,2,7,1,1,6,518.066210145,None,3,8,0,9,1,5,4,7,0,519.279101543,None,519.279101543,None,519.279101543,None,519.279101543,None,519.279101543,None,519.279101543,None,519.279101543,None,519.279101543,None,519.3590272179999,519.865543215,519.3590272179999,519.865543215,519.3590272179999,519.865543215,None,None,down,2.121641144000023,519.3590272179999,None,None,None,x,0.4717850920000046,521.544892584,None,522.051383913,None,,,,,,,,,103,32,2022_Sep_08_1409,templeton_exp2A_SD,2020.2.10,37.507892785878504,
,,,,,,,,,,,,,,,,,,,,,,24,0,24,0,,,,,,,,,,,,,,,,,,,,,,,,0.65,0.75,1.25,,,,,,,,,,,,,,,,,,,,,,,,,,,,,,,,,,,24,501.89849366,0,8,3,5,2,9,1,7,1,0,5,522.624494057,None,0,8,3,5,2,9,1,7,0,523.8373260449999,None,523.8373260449999,None,523.8373260449999,None,523.8373260449999,None,523.8373260449999,None,523.8373260449999,None,523.8373260449999,None,523.8373260449999,None,523.917288741,524.423774698,523.917288741,524.423774698,523.917288741,524.423774698,None,None,down,1.5793767119999984,523.917288741,None,None,None,z,0.30256633299995883,525.570060346,None,525.916577011,None,,,,,,,,,103,32,2022_Sep_08_1409,templeton_exp2A_SD,2020.2.10,37.507892785878504,
,,,,,,,,,,,,,,,,,,,,,,25,0,25,0,,,,,,,,,,,,,,,,,,,,,,,,2.05,0.75,2.05,,,,,,,,,,,,,,,,,,,,,,,,,,,,,,,,,,,25,505.763346778,2,9,3,7,4,8,1,5,0,0,1,526.489695308,None,2,9,3,7,4,8,1,5,1,529.088742071,None,529.088742071,None,529.088742071,None,529.088742071,None,529.088742071,None,529.088742071,None,529.088742071,None,529.088742071,None,527.782542378,528.288966215,527.782542378,528.288966215,527.782542378,528.288966215,None,None,down,0.7198139920000131,529.088742071,None,None,None,z,0.6962844949999862,529.88837895,None,530.63475249,None,,,,,,,,,103,32,2022_Sep_08_1409,templeton_exp2A_SD,2020.2.10,37.507892785878504,
,,,,,,,,,,,,,,,,,,,,,,26,0,26,0,,,,,,,,,,,,,,,,,,,,,,,,0.65,0.75,1.25,,,,,,,,,,,,,,,,,,,,,,,,,,,,,,,,,,,26,510.48189968300005,1,9,0,7,3,8,2,5,1,0,5,531.207839861,None,1,9,0,7,3,8,2,5,1,532.4207135739999,None,532.4207135739999,None,532.4207135739999,None,532.4207135739999,None,532.4207135739999,None,532.4207135739999,None,532.4207135739999,None,532.4207135739999,None,532.527359059,533.033775622,532.527359059,533.033775622,532.527359059,533.033775622,None,None,down,0.8733033649999697,532.527359059,None,None,None,z,0.45235577599999033,533.4603472279999,None,533.940168579,None,,,,,,,,,103,32,2022_Sep_08_1409,templeton_exp2A_SD,2020.2.10,37.507892785878504,
,,,,,,,,,,,,,,,,,,,,,,27,0,27,0,,,,,,,,,,,,,,,,,,,,,,,,2.05,0.75,2.05,,,,,,,,,,,,,,,,,,,,,,,,,,,,,,,,,,,27,513.788237509,2,7,3,9,0,5,1,8,0,1,5,534.513326934,None,2,7,3,9,0,4,1,8,2,537.11233255,None,537.11233255,None,537.11233255,None,537.11233255,None,537.11233255,None,537.11233255,None,537.11233255,None,537.11233255,None,535.832827896,536.339283562,535.832827896,536.339283562,535.832827896,536.339283562,None,None,left,1.0163123210001004,537.11233255,None,None,None,z,0.3954480849999982,538.205213584,None,538.631759927,None,,,,,,,,,103,32,2022_Sep_08_1409,templeton_exp2A_SD,2020.2.10,37.507892785878504,
,,,,,,,,,,,,,,,,,,,,,,28,0,28,0,,,,,,,,,,,,,,,,,,,,,,,,2.05,0.75,2.05,,,,,,,,,,,,,,,,,,,,,,,,,,,,,,,,,,,28,518.478942241,4,5,3,8,2,7,0,6,0,1,0,539.204812306,None,1,5,3,8,2,7,0,6,3,541.803912585,None,541.803912585,None,541.803912585,None,541.803912585,None,541.803912585,None,541.803912585,None,541.803912585,None,541.803912585,None,540.524317983,541.030847981,540.524317983,541.030847981,540.524317983,541.030847981,None,None,left,1.9407670240000243,541.803912585,None,None,None,x,0.4775175690000424,543.803157798,None,544.309562196,None,,,,,,,,,103,32,2022_Sep_08_1409,templeton_exp2A_SD,2020.2.10,37.507892785878504,
,,,,,,,,,,,,,,,,,,,,,,29,0,29,0,,,,,,,,,,,,,,,,,,,,,,,,0.65,0.75,1.25,,,,,,,,,,,,,,,,,,,,,,,,,,,,,,,,,,,29,524.155975127,3,6,4,8,0,9,2,5,1,0,7,544.882724096,None,3,6,4,8,0,9,2,5,3,546.095604145,None,546.095604145,None,546.095604145,None,546.095604145,None,546.095604145,None,546.095604145,None,546.095604145,None,546.095604145,None,546.175567088,546.682041547,546.175567088,546.682041547,546.175567088,546.682041547,None,None,down,1.4090978680000035,546.175567088,None,None,None,x,0.4390483829999994,547.6416406,None,548.121421139,None,,,,,,,,,103,32,2022_Sep_08_1409,templeton_exp2A_SD,2020.2.10,37.507892785878504,
,,,,,,,,,,,,,,,,,,,,,,30,0,30,0,,,,,,,,,,,,,,,,,,,,,,,,2.05,0.75,2.05,,,,,,,,,,,,,,,,,,,,,,,,,,,,,,,,,,,30,533.096981987,3,5,1,7,2,8,0,6,0,0,2,553.825962588,None,3,5,1,7,2,8,0,6,0,556.4250214379999,None,556.4250214379999,None,556.4250214379999,None,556.4250214379999,None,556.4250214379999,None,556.4250214379999,None,556.4250214379999,None,556.4250214379999,None,555.145525419,555.652015046,555.145525419,555.652015046,555.145525419,555.652015046,None,None,left,1.5995208230000344,556.4250214379999,None,None,None,x,0.3202695400000266,558.104305763,None,558.477536414,None,,,,,,,,,103,32,2022_Sep_08_1409,templeton_exp2A_SD,2020.2.10,37.507892785878504,
,,,,,,,,,,,,,,,,,,,,,,31,0,31,0,,,,,,,,,,,,,,,,,,,,,,,,0.65,0.75,1.25,,,,,,,,,,,,,,,,,,,,,,,,,,,,,,,,,,,31,538.325068486,1,8,3,7,4,6,2,5,1,1,4,559.050643078,None,1,8,3,7,0,6,2,5,0,560.263563329,None,560.263563329,None,560.263563329,None,560.263563329,None,560.263563329,None,560.263563329,None,560.263563329,None,560.263563329,None,560.370141527,560.876631496,560.370141527,560.876631496,560.370141527,560.876631496,None,None,left,1.5986130539999976,560.370141527,None,None,None,z,0.4818535269999984,562.02277695,None,562.556056447,None,,,,,,,,,103,32,2022_Sep_08_1409,templeton_exp2A_SD,2020.2.10,37.507892785878504,
,,,,,,,,,,,,,,,,,,,,,,32,0,32,0,,,,,,,,,,,,,,,,,,,,,,,,2.05,0.75,2.05,,,,,,,,,,,,,,,,,,,,,,,,,,,,,,,,,,,32,542.402923439,4,7,0,9,1,8,2,5,0,0,2,563.129140987,None,4,7,0,9,1,8,2,5,1,565.728155247,None,565.728155247,None,565.728155247,None,565.728155247,None,565.728155247,None,565.728155247,None,565.728155247,None,565.728155247,None,564.421913505,564.928462839,564.421913505,564.928462839,564.421913505,564.928462839,None,None,down,0.9205052909999267,565.728155247,None,None,None,z,0.5902076759999773,566.714453791,None,567.354136126,None,,,,,,,,,103,32,2022_Sep_08_1409,templeton_exp2A_SD,2020.2.10,37.507892785878504,
,,,,,,,,,,,,,,,,,,,,,,33,0,33,0,,,,,,,,,,,,,,,,,,,,,,,,2.05,0.75,2.05,,,,,,,,,,,,,,,,,,,,,,,,,,,,,,,,,,,33,547.201330573,3,8,2,5,4,9,1,7,0,0,0,567.927320941,None,3,8,2,5,4,9,1,7,2,570.526339077,None,570.526339077,None,570.526339077,None,570.526339077,None,570.526339077,None,570.526339077,None,570.526339077,None,570.526339077,None,569.220135642,569.726638687,569.220135642,569.726638687,569.220135642,569.726638687,None,None,down,2.114307681000014,570.526339077,None,None,None,x,0.26448006299995086,572.712182333,None,573.005279045,None,,,,,,,,,103,32,2022_Sep_08_1409,templeton_exp2A_SD,2020.2.10,37.507892785878504,
,,,,,,,,,,,,,,,,,,,,,,34,0,34,0,,,,,,,,,,,,,,,,,,,,,,,,2.05,0.75,2.05,,,,,,,,,,,,,,,,,,,,,,,,,,,,,,,,,,,34,552.852433756,1,5,2,9,3,8,4,7,0,1,7,573.578460336,None,1,5,2,9,3,8,4,0,3,576.1775378469999,None,576.1775378469999,None,576.1775378469999,None,576.1775378469999,None,576.1775378469999,None,576.1775378469999,None,576.1775378469999,None,576.1775378469999,None,574.897930578,575.404447645,574.897930578,575.404447645,574.897930578,575.404447645,None,None,left,1.2311116019999417,576.1775378469999,None,None,None,x,0.509007487999952,577.483656472,None,578.043490912,None,,,,,,,,,103,32,2022_Sep_08_1409,templeton_exp2A_SD,2020.2.10,37.507892785878504,
,,,,,,,,,,,,,,,,,,,,,,35,0,35,0,,,,,,,,,,,,,,,,,,,,,,,,2.05,0.75,2.05,,,,,,,,,,,,,,,,,,,,,,,,,,,,,,,,,,,35,557.890801605,0,9,2,8,1,5,3,7,0,0,2,578.616606715,None,0,9,2,8,1,5,3,7,4,581.215624035,None,581.215624035,None,581.215624035,None,581.215624035,None,581.215624035,None,581.215624035,None,581.215624035,None,581.215624035,None,579.909413912,580.415924897,579.909413912,580.415924897,579.909413912,580.415924897,None,None,down,2.7129447980000805,581.215624035,None,None,None,x,0.37279579300002297,583.987869808,None,584.387716866,None,,,,,,,,,103,32,2022_Sep_08_1409,templeton_exp2A_SD,2020.2.10,37.507892785878504,
,,,,,,,,,,,,,,,,,,,,,,36,0,36,0,,,,,,,,,,,,,,,,,,,,,,,,0.65,0.75,1.25,,,,,,,,,,,,,,,,,,,,,,,,,,,,,,,,,,,36,564.23508537,4,5,1,9,2,7,0,8,1,0,2,584.960869226,None,4,5,1,9,2,7,0,8,4,586.173732502,None,586.173732502,None,586.173732502,None,586.173732502,None,586.173732502,None,586.173732502,None,586.173732502,None,586.173732502,None,586.2803629489999,586.786787395,586.2803629489999,586.786787395,586.2803629489999,586.786787395,None,None,down,1.3683009050000692,586.2803629489999,None,None,None,z,0.3528860720000466,587.719741894,None,588.119594087,None,,,,,,,,,103,32,2022_Sep_08_1409,templeton_exp2A_SD,2020.2.10,37.507892785878504,
,,,,,,,,,,,,,,,,,,,,,,37,0,37,0,,,,,,,,,,,,,,,,,,,,,,,,0.65,0.75,1.25,,,,,,,,,,,,,,,,,,,,,,,,,,,,,,,,,,,37,567.966205209,1,5,4,9,3,6,2,8,1,0,0,588.692745096,None,1,5,4,9,3,6,2,8,4,589.905579406,None,589.905579406,None,589.905579406,None,589.905579406,None,589.905579406,None,589.905579406,None,589.905579406,None,589.905579406,None,589.985644009,590.492074163,589.985644009,590.492074163,589.985644009,590.492074163,None,None,down,0.9270232919999444,589.985644009,None,None,None,z,0.412787101000049,590.971886076,None,591.42504962,None,,,,,,,,,103,32,2022_Sep_08_1409,templeton_exp2A_SD,2020.2.10,37.507892785878504,
,,,,,,,,,,,,,,,,,,,,,,38,0,38,0,,,,,,,,,,,,,,,,,,,,,,,,0.65,0.75,1.25,,,,,,,,,,,,,,,,,,,,,,,,,,,,,,,,,,,38,571.272133918,0,5,1,6,4,8,2,7,1,1,2,591.998202312,None,0,5,3,6,4,8,2,7,4,593.211086485,None,593.211086485,None,593.211086485,None,593.211086485,None,593.211086485,None,593.211086485,None,593.211086485,None,593.211086485,None,593.317710133,593.824146389,593.317710133,593.824146389,593.317710133,593.824146389,None,None,left,0.9949566610000602,593.317710133,None,None,None,z,0.8246955769999431,594.383975878,None,595.236888145,None,,,,,,,,,103,32,2022_Sep_08_1409,templeton_exp2A_SD,2020.2.10,37.507892785878504,
,,,,,,,,,,,,,,,,,,,,,,39,0,39,0,,,,,,,,,,,,,,,,,,,,,,,,2.05,0.75,2.05,,,,,,,,,,,,,,,,,,,,,,,,,,,,,,,,,,,39,575.083752915,3,8,4,9,1,5,0,6,0,1,1,595.8100913659999,None,3,2,4,9,1,5,0,6,5,598.4090570769999,None,598.4090570769999,None,598.4090570769999,None,598.4090570769999,None,598.4090570769999,None,598.4090570769999,None,598.4090570769999,None,598.4090570769999,None,597.102963556,597.609359088,597.102963556,597.609359088,597.102963556,597.609359088,None,None,left,2.5515860819999716,598.4090570769999,None,None,None,c,0.37125807000006716,601.021413842,None,601.421218874,None,,,,,,,,,103,32,2022_Sep_08_1409,templeton_exp2A_SD,2020.2.10,37.507892785878504,
,,,,,,,,,,,,,,,,,,,,,,40,0,40,0,,,,,,,,,,,,,,,,,,,,,,,,2.05,0.75,2.05,,,,,,,,,,,,,,,,,,,,,,,,,,,,,,,,,,,40,581.269079748,0,6,2,7,3,5,1,8,0,0,2,601.994390476,None,0,6,2,7,3,5,1,8,6,604.593375519,None,604.593375519,None,604.593375519,None,604.593375519,None,604.593375519,None,604.593375519,None,604.593375519,None,604.593375519,None,603.3139064979999,603.820316341,603.3139064979999,603.820316341,603.3139064979999,603.820316341,None,None,down,1.9113285349999387,604.593375519,None,None,None,z,0.7226456669999379,606.566016584,None,607.338983512,None,,,,,,,,,103,32,2022_Sep_08_1409,templeton_exp2A_SD,2020.2.10,37.507892785878504,
,,,,,,,,,,,,,,,,,,,,,,41,0,41,0,,,,,,,,,,,,,,,,,,,,,,,,2.05,0.75,2.05,,,,,,,,,,,,,,,,,,,,,,,,,,,,,,,,,,,41,587.185971173,2,8,4,5,1,9,3,7,0,0,1,607.912181345,None,2,8,4,5,1,9,3,7,7,610.5111931389999,None,610.5111931389999,None,610.5111931389999,None,610.5111931389999,None,610.5111931389999,None,610.5111931389999,None,610.5111931389999,None,610.5111931389999,None,609.231679814,609.738112604,609.231679814,609.738112604,609.231679814,609.738112604,None,None,down,1.2174644589999843,610.5111931389999,None,None,None,x,0.5299815840000974,611.7906946109999,None,612.350497718,None,,,,,,,,,103,32,2022_Sep_08_1409,templeton_exp2A_SD,2020.2.10,37.507892785878504,
,,,,,,,,,,,,,,,,,,,,,,42,0,42,0,,,,,,,,,,,,,,,,,,,,,,,,2.05,0.75,2.05,,,,,,,,,,,,,,,,,,,,,,,,,,,,,,,,,,,42,592.197510528,3,9,0,5,4,6,1,8,0,0,1,612.923600303,None,3,9,0,5,4,6,1,8,8,615.522540804,None,615.522540804,None,615.522540804,None,615.522540804,None,615.522540804,None,615.522540804,None,615.522540804,None,615.522540804,None,614.243103777,614.749595077,614.243103777,614.749595077,614.243103777,614.749595077,None,None,down,0.8860686399999622,615.522540804,None,None,None,x,0.4224908519998962,616.482186938,None,616.9354323809999,None,1,,,,,,,,103,32,2022_Sep_08_1409,templeton_exp2A_SD,2020.2.10,37.507892785878504,
,,,,,,,,,,,,,,,,,,,,,,43,0,43,0,,,,,,,,,,,,,,,,,,,,,,,,2.9000000000000004,1.6,2.9000000000000004,,,,,,,,,,,,,,,,,,,,,,,,,,,,,,,,,,,43,596.781126981,2,7,4,9,3,5,1,6,0,0,0,617.508464864,None,2,7,4,9,3,5,1,6,,620.960563568,None,620.960563568,None,620.960563568,None,620.960563568,None,620.960563568,None,620.960563568,None,620.960563568,None,620.960563568,None,619.654354372,620.160792288,619.654354372,620.160792288,619.654354372,620.160792288,None,None,down,2.5761427770000864,620.960563568,None,None,None,z,0.2891042070000367,623.599570623,None,623.919405486,None,,0,1,1,,,,,103,32,2022_Sep_08_1409,templeton_exp2A_SD,2020.2.10,37.507892785878504,
,,,,,,,,,,,,,,,,,,,,,,44,0,44,0,,,,,,,,,,,,,,,,,,,,,,,,3.5,3.6,4.1,,,,,,,,,,,,,,,,,,,,,,,,,,,,,,,,,,,44,603.767294419,2,5,0,8,1,6,3,7,1,1,1,624.492518832,None,2,4,0,8,1,6,3,7,,628.55768767,None,628.55768767,None,628.55768767,None,628.55768767,None,628.55768767,None,628.55768767,None,628.55768767,None,628.55768767,None,628.664318953,629.170776134,628.664318953,629.170776134,628.664318953,629.170776134,None,None,down,3.6563372880000315,628.664318953,None,None,None,c,0.40447280099999716,632.396193406,None,632.849342149,None,,1,1,1,,,,,103,32,2022_Sep_08_1409,templeton_exp2A_SD,2020.2.10,37.507892785878504,
,,,,,,,,,,,,,,,,,,,,,,45,0,45,0,,,,,,,,,,,,,,,,,,,,,,,,1.7,1.8,2.3,,,,,,,,,,,,,,,,,,,,,,,,,,,,,,,,,,,45,615.184753172,0,5,4,9,1,6,2,8,1,1,7,635.914849342,None,0,5,4,9,1,6,2,3,,638.167374003,None,638.167374003,None,638.167374003,None,638.167374003,None,638.167374003,None,638.167374003,None,638.167374003,None,638.167374003,None,638.273965476,638.780445157,638.273965476,638.780445157,638.273965476,638.780445157,None,None,down,1.3747001199999431,638.273965476,None,None,None,x,0.3912617409999939,639.71345875,None,640.139857503,None,,2,1,1,,,,,103,32,2022_Sep_08_1409,templeton_exp2A_SD,2020.2.10,37.507892785878504,
,,,,,,,,,,,,,,,,,,,,,,46,0,46,0,,,,,,,,,,,,,,,,,,,,,,,,1.7,1.8,2.3,,,,,,,,,,,,,,,,,,,,,,,,,,,,,,,,,,,46,619.986401244,2,5,3,6,1,9,0,7,1,1,5,640.713058414,None,2,5,3,6,1,4,0,7,,642.965510223,None,642.965510223,None,642.965510223,None,642.965510223,None,642.965510223,None,642.965510223,None,642.965510223,None,642.965510223,None,643.072144238,643.578661979,643.072144238,643.578661979,643.072144238,643.578661979,None,None,down,3.2645788620000076,643.072144238,None,None,None,x,0.3483899039999869,646.404214582,None,646.80402193,None,,3,1,1,,,,,103,32,2022_Sep_08_1409,templeton_exp2A_SD,2020.2.10,37.507892785878504,
,,,,,,,,,,,,,,,,,,,,,,47,0,47,0,,,,,,,,,,,,,,,,,,,,,,,,2.3000000000000003,2.4000000000000004,2.9000000000000004,,,,,,,,,,,,,,,,,,,,,,,,,,,,,,,,,,,47,626.651711969,4,5,0,8,2,7,1,9,1,0,6,647.377226158,None,4,5,0,8,2,7,1,9,,650.242726351,None,650.242726351,None,650.242726351,None,650.242726351,None,650.242726351,None,650.242726351,None,650.242726351,None,650.242726351,None,650.3226949479999,650.829223137,650.3226949479999,650.829223137,650.3226949479999,650.829223137,None,None,down,1.8699598729999707,650.3226949479999,None,None,None,x,0.3319890689999738,652.268679304,None,652.641897732,None,,4,1,1,,,,,103,32,2022_Sep_08_1409,templeton_exp2A_SD,2020.2.10,37.507892785878504,
,,,,,,,,,,,,,,,,,,,,,,48,0,48,0,,,,,,,,,,,,,,,,,,,,,,,,1.9,2.0,2.5,,,,,,,,,,,,,,,,,,,,,,,,,,,,,,,,,,,48,632.489577699,0,8,1,7,2,6,3,9,1,1,2,653.215015012,None,0,8,4,7,2,6,3,9,,655.6807900599999,None,655.6807900599999,None,655.6807900599999,None,655.6807900599999,None,655.6807900599999,None,655.6807900599999,None,655.6807900599999,None,655.6807900599999,None,655.760709273,656.2671408479999,655.760709273,656.2671408479999,655.760709273,656.2671408479999,None,None,left,1.6719550789999857,655.760709273,None,None,None,x,0.3472612240000217,657.4933820599999,None,657.893192102,None,,5,1,1,,,,,103,32,2022_Sep_08_1409,templeton_exp2A_SD,2020.2.10,37.507892785878504,
,,,,,,,,,,,,,,,,,,,,,,49,0,49,0,,,,,,,,,,,,,,,,,,,,,,,,2.5,2.6,3.1,,,,,,,,,,,,,,,,,,,,,,,,,,,,,,,,,,,49,637.739401615,2,6,1,9,4,5,0,7,1,0,7,658.466359843,None,2,6,1,9,4,5,0,7,,661.518549958,None,661.518549958,None,661.518549958,None,661.518549958,None,661.518549958,None,661.518549958,None,661.518549958,None,661.518549958,None,661.625117911,662.131598813,661.625117911,662.131598813,661.625117911,662.131598813,None,None,down,2.943603969000037,661.625117911,None,None,None,x,0.5072643560000643,664.637311322,None,665.197099891,None,,6,1,1,,,,,103,32,2022_Sep_08_1409,templeton_exp2A_SD,2020.2.10,37.507892785878504,
,,,,,,,,,,,,,,,,,,,,,,50,0,50,0,,,,,,,,,,,,,,,,,,,,,,,,2.9000000000000004,1.6,2.9000000000000004,,,,,,,,,,,,,,,,,,,,,,,,,,,,,,,,,,,50,645.044355507,4,8,2,9,0,7,1,5,0,0,1,665.770189296,None,4,8,2,9,0,7,1,5,,669.22224556,None,669.22224556,None,669.22224556,None,669.22224556,None,669.22224556,None,669.22224556,None,669.22224556,None,669.22224556,None,667.91611074,668.422505072,667.91611074,668.422505072,667.91611074,668.422505072,None,None,down,1.0824176749999879,669.22224556,None,None,None,x,0.2961291600000777,670.368533063,None,670.714986394,None,,7,2,2,,,,,103,32,2022_Sep_08_1409,templeton_exp2A_SD,2020.2.10,37.507892785878504,
,,,,,,,,,,,,,,,,,,,,,,51,0,51,0,,,,,,,,,,,,,,,,,,,,,,,,3.1,3.2,3.7,,,,,,,,,,,,,,,,,,,,,,,,,,,,,,,,,,,51,650.561982734,3,5,2,6,4,8,1,9,1,0,5,671.288125992,None,3,5,2,6,4,8,1,9,,674.95340492,None,674.95340492,None,674.95340492,None,674.95340492,None,674.95340492,None,674.95340492,None,674.95340492,None,674.95340492,None,675.03334109,675.5397995769999,675.03334109,675.5397995769999,675.03334109,675.5397995769999,None,None,down,1.1993302320000794,675.03334109,None,None,None,z,0.3383677420000595,676.286292282,None,676.659412038,None,,8,2,2,,,,,103,32,2022_Sep_08_1409,templeton_exp2A_SD,2020.2.10,37.507892785878504,
,,,,,,,,,,,,,,,,,,,,,,52,0,52,0,,,,,,,,,,,,,,,,,,,,,,,,2.9000000000000004,1.6,2.9000000000000004,,,,,,,,,,,,,,,,,,,,,,,,,,,,,,,,,,,52,656.505293843,4,5,1,6,2,7,3,9,0,1,4,677.23246452,None,4,5,1,6,0,7,3,9,,680.684609979,None,680.684609979,None,680.684609979,None,680.684609979,None,680.684609979,None,680.684609979,None,680.684609979,None,680.684609979,None,679.378377315,679.884901395,679.378377315,679.884901395,679.378377315,679.884901395,None,None,down,1.6520474349999859,680.684609979,None,None,None,x,0.2581145379999725,682.390581366,None,682.683830392,None,,9,2,3,,,,,103,32,2022_Sep_08_1409,templeton_exp2A_SD,2020.2.10,37.507892785878504,
,,,,,,,,,,,,,,,,,,,,,,53,0,53,0,,,,,,,,,,,,,,,,,,,,,,,,2.9000000000000004,1.6,2.9000000000000004,,,,,,,,,,,,,,,,,,,,,,,,,,,,,,,,,,,53,662.531610485,0,7,4,8,1,5,2,6,0,0,4,683.256889089,None,0,7,4,8,1,5,2,6,,686.708949287,None,686.708949287,None,686.708949287,None,686.708949287,None,686.708949287,None,686.708949287,None,686.708949287,None,686.708949287,None,685.402749568,685.909286848,685.402749568,685.909286848,685.402749568,685.909286848,None,None,down,0.9957459229999586,686.708949287,None,None,None,x,0.24943239499998526,687.775243005,None,688.068490991,None,,10,3,4,,,,,103,32,2022_Sep_08_1409,templeton_exp2A_SD,2020.2.10,37.507892785878504,
,,,,,,,,,,,,,,,,,,,,,,54,0,54,0,,,,,,,,,,,,,,,,,,,,,,,,2.9000000000000004,1.6,2.9000000000000004,,,,,,,,,,,,,,,,,,,,,,,,,,,,,,,,,,,54,667.915232663,3,8,4,5,1,9,2,7,0,0,4,688.641551056,None,3,8,4,5,1,9,2,7,,692.093579593,None,692.093579593,None,692.093579593,None,692.093579593,None,692.093579593,None,692.093579593,None,692.093579593,None,692.093579593,None,690.7874033219999,691.293914155,690.7874033219999,691.293914155,690.7874033219999,691.293914155,None,None,down,1.675125611999988,692.093579593,None,None,None,z,0.23036665099994025,693.8262925509999,None,694.092804766,None,,11,4,5,,,,,103,32,2022_Sep_08_1409,templeton_exp2A_SD,2020.2.10,37.507892785878504,
,,,,,,,,,,,,,,,,,,,,,,55,0,55,0,,,,,,,,,,,,,,,,,,,,,,,,2.9000000000000004,1.6,2.9000000000000004,,,,,,,,,,,,,,,,,,,,,,,,,,,,,,,,,,,55,673.940004258,4,9,2,6,3,8,0,7,0,1,4,694.665981347,None,4,9,2,6,1,8,0,7,,698.117982326,None,698.117982326,None,698.117982326,None,698.117982326,None,698.117982326,None,698.117982326,None,698.117982326,None,698.117982326,None,696.811828055,697.318300871,696.811828055,697.318300871,696.811828055,697.318300871,None,None,left,1.2586667029999035,698.117982326,None,None,None,z,0.2858452520000583,699.4508146539999,None,699.770632662,None,,12,5,6,,,,,103,32,2022_Sep_08_1409,templeton_exp2A_SD,2020.2.10,37.507892785878504,
,,,,,,,,,,,,,,,,,,,,,,56,0,56,0,,,,,,,,,,,,,,,,,,,,,,,,1.5,1.6,2.1,,,,,,,,,,,,,,,,,,,,,,,,,,,,,,,,,,,56,679.616539676,4,6,0,9,3,7,2,5,1,0,5,700.343824975,None,4,6,0,9,3,7,2,5,,702.4096638789999,None,702.4096638789999,None,702.4096638789999,None,702.4096638789999,None,702.4096638789999,None,702.4096638789999,None,702.4096638789999,None,702.4096638789999,None,702.489556475,702.996150878,702.489556475,702.996150878,702.489556475,702.996150878,None,None,down,1.0631669009999314,702.489556475,None,None,None,z,0.3514207199999646,703.609244017,None,704.009061523,None,,13,5,6,,,,,103,32,2022_Sep_08_1409,templeton_exp2A_SD,2020.2.10,37.507892785878504,
,,,,,,,,,,,,,,,,,,,,,,57,0,57,0,,,,,,,,,,,,,,,,,,,,,,,,2.9000000000000004,1.6,2.9000000000000004,,,,,,,,,,,,,,,,,,,,,,,,,,,,,,,,,,,57,683.856234449,1,6,3,5,0,8,4,7,0,1,2,704.5822262519999,None,1,6,2,5,0,8,4,7,,708.034181208,None,708.034181208,None,708.034181208,None,708.034181208,None,708.034181208,None,708.034181208,None,708.034181208,None,708.034181208,None,706.728052868,707.234518372,706.728052868,707.234518372,706.728052868,707.234518372,None,None,left,0.8944777799999883,708.034181208,None,None,None,z,0.3108464099999537,708.993873098,None,709.34037207,None,,14,6,7,,,,,103,32,2022_Sep_08_1409,templeton_exp2A_SD,2020.2.10,37.507892785878504,
,,,,,,,,,,,,,,,,,,,,,,58,0,58,0,,,,,,,,,,,,,,,,,,,,,,,,2.7,2.8000000000000003,3.3000000000000003,,,,,,,,,,,,,,,,,,,,,,,,,,,,,,,,,,,58,689.1877891620001,0,9,1,8,4,7,3,6,1,0,5,709.9134846329999,None,0,9,1,8,4,7,3,6,,713.178953341,None,713.178953341,None,713.178953341,None,713.178953341,None,713.178953341,None,713.178953341,None,713.178953341,None,713.178953341,None,713.258847426,713.7654052299999,713.258847426,713.7654052299999,713.258847426,713.7654052299999,None,None,down,1.4858199260000902,713.258847426,None,None,None,z,0.22764159199994083,714.805034084,None,715.071598773,None,,15,6,7,,,,,103,32,2022_Sep_08_1409,templeton_exp2A_SD,2020.2.10,37.507892785878504,
,,,,,,,,,,,,,,,,,,,,,,59,0,59,0,,,,,,,,,,,,,,,,,,,,,,,,3.5,3.6,4.1,,,,,,,,,,,,,,,,,,,,,,,,,,,,,,,,,,,59,694.918759549,1,8,3,5,0,6,2,9,1,0,0,715.644685782,None,1,8,3,5,0,6,2,9,,719.70976878,None,719.70976878,None,719.70976878,None,719.70976878,None,719.70976878,None,719.70976878,None,719.70976878,None,719.70976878,None,719.789696164,720.29626405,719.789696164,720.29626405,719.789696164,720.29626405,None,None,left,2.6909570489999624,719.789696164,None,None,None,c,0.2492766530000381,722.535414207,None,722.828637655,None,,16,6,7,,,,,103,32,2022_Sep_08_1409,templeton_exp2A_SD,2020.2.10,37.507892785878504,
,,,,,,,,,,,,,,,,,,,,,,60,0,60,0,,,,,,,,,,,,,,,,,,,,,,,,2.1,2.2,2.7,,,,,,,,,,,,,,,,,,,,,,,,,,,,,,,,,,,60,704.09835093,1,9,4,8,0,6,2,5,1,1,3,724.8278732919999,None,1,9,4,3,0,6,2,5,,727.480199088,None,727.480199088,None,727.480199088,None,727.480199088,None,727.480199088,None,727.480199088,None,727.480199088,None,727.480199088,None,727.586790062,728.093305477,727.586790062,728.093305477,727.586790062,728.093305477,None,None,down,2.6458784220000098,727.586790062,None,None,None,x,0.25490622400002394,730.305760666,None,730.599034004,None,,17,6,7,,,,,103,32,2022_Sep_08_1409,templeton_exp2A_SD,2020.2.10,37.507892785878504,
,,,,,,,,,,,,,,,,,,,,,,61,0,61,0,,,,,,,,,,,,,,,,,,,,,,,,2.1,2.2,2.7,,,,,,,,,,,,,,,,,,,,,,,,,,,,,,,,,,,61,710.4463063970001,1,7,2,8,0,5,3,6,1,0,7,731.172090925,None,1,7,2,8,0,5,3,6,,733.82442821,None,733.82442821,None,733.82442821,None,733.82442821,None,733.82442821,None,733.82442821,None,733.82442821,None,733.82442821,None,733.93103309,734.437535816,733.93103309,734.437535816,733.93103309,734.437535816,None,None,down,1.141575343999989,733.93103309,None,None,None,z,0.4060371059999852,735.130636238,None,735.583801885,None,,18,6,7,,,,,103,32,2022_Sep_08_1409,templeton_exp2A_SD,2020.2.10,37.507892785878504,
,,,,,,,,,,,,,,,,,,,,,,62,0,62,0,,,,,,,,,,,,,,,,,,,,,,,,2.9000000000000004,1.6,2.9000000000000004,,,,,,,,,,,,,,,,,,,,,,,,,,,,,,,,,,,62,715.430323016,4,6,0,5,2,8,1,9,0,0,4,736.1568517439999,None,4,6,0,5,2,8,1,9,,739.608940145,None,739.608940145,None,739.608940145,None,739.608940145,None,739.608940145,None,739.608940145,None,739.608940145,None,739.608940145,None,738.302684357,738.809204489,738.302684357,738.809204489,738.302684357,738.809204489,None,None,down,2.9357067070000085,739.608940145,None,None,None,c,0.20360535899999377,742.621068704,None,742.8610449939999,None,,19,7,8,,,,,103,32,2022_Sep_08_1409,templeton_exp2A_SD,2020.2.10,37.507892785878504,
,,,,,,,,,,,,,,,,,,,,,,63,0,63,0,,,,,,,,,,,,,,,,,,,,,,,,2.9000000000000004,1.6,2.9000000000000004,,,,,,,,,,,,,,,,,,,,,,,,,,,,,,,,,,,63,722.707632299,4,5,1,8,2,6,3,9,0,0,4,743.434144188,None,4,5,1,8,2,6,3,9,,746.886165177,None,746.886165177,None,746.886165177,None,746.886165177,None,746.886165177,None,746.886165177,None,746.886165177,None,746.886165177,None,745.579958269,746.086411805,745.579958269,746.086411805,745.579958269,746.086411805,None,None,down,3.4984936210000797,746.886165177,None,None,None,c,1.4145102359999555,750.458126327,None,751.92423392,None,,20,8,9,,,,,103,32,2022_Sep_08_1409,templeton_exp2A_SD,2020.2.10,37.507892785878504,
,,,,,,,,,,,,,,,,,,,,,,64,0,64,0,,,,,,,,,,,,,,,,,,,,,,,,2.7,2.8000000000000003,3.3000000000000003,,,,,,,,,,,,,,,,,,,,,,,,,,,,,,,,,,,64,731.7714713830001,1,7,4,5,3,6,2,8,1,1,5,752.510660685,None,1,7,4,5,3,0,2,8,,755.7761101579999,None,755.7761101579999,None,755.7761101579999,None,755.7761101579999,None,755.7761101579999,None,755.7761101579999,None,755.7761101579999,None,755.7761101579999,None,755.882733282,756.3892496359999,755.882733282,756.3892496359999,755.882733282,756.3892496359999,None,None,down,1.645922765000023,755.882733282,None,None,None,c,1.1399558550000393,757.588715618,None,758.761686738,None,,21,8,9,,,,,103,32,2022_Sep_08_1409,templeton_exp2A_SD,2020.2.10,37.507892785878504,
,,,,,,,,,,,,,,,,,,,,,,65,0,65,0,,,,,,,,,,,,,,,,,,,,,,,,2.9000000000000004,1.6,2.9000000000000004,,,,,,,,,,,,,,,,,,,,,,,,,,,,,,,,,,,65,738.608902734,2,7,1,9,3,8,0,5,0,0,1,759.334798231,None,2,7,1,9,3,8,0,5,,762.786820201,None,762.786820201,None,762.786820201,None,762.786820201,None,762.786820201,None,762.786820201,None,762.786820201,None,762.786820201,None,761.480701233,761.987069959,761.480701233,761.987069959,761.480701233,761.987069959,None,None,down,1.5578375999999707,762.786820201,None,None,None,z,0.2197961670000268,764.412875592,None,764.679446991,None,,22,9,10,,,,,103,32,2022_Sep_08_1409,templeton_exp2A_SD,2020.2.10,37.507892785878504,
,,,,,,,,,,,,,,,,,,,,,,66,0,66,0,,,,,,,,,,,,,,,,,,,,,,,,3.5,3.6,4.1,,,,,,,,,,,,,,,,,,,,,,,,,,,,,,,,,,,66,744.5265741860001,1,8,3,9,4,5,0,6,1,0,3,765.252586935,None,1,8,3,9,4,5,0,6,,769.31768542,None,769.31768542,None,769.31768542,None,769.31768542,None,769.31768542,None,769.31768542,None,769.31768542,None,769.31768542,None,769.397643131,769.904088442,769.397643131,769.904088442,769.397643131,769.904088442,None,None,down,2.5470211489999883,769.397643131,None,None,None,z,0.2066838480000115,772.009990995,None,772.249913375,None,,23,9,10,,,,,103,32,2022_Sep_08_1409,templeton_exp2A_SD,2020.2.10,37.507892785878504,
,,,,,,,,,,,,,,,,,,,,,,67,0,67,0,,,,,,,,,,,,,,,,,,,,,,,,2.9000000000000004,1.6,2.9000000000000004,,,,,,,,,,,,,,,,,,,,,,,,,,,,,,,,,,,67,752.096811474,3,9,2,5,4,6,1,8,0,1,6,772.822982963,None,3,9,2,5,4,6,0,8,,776.275043576,None,776.275043576,None,776.275043576,None,776.275043576,None,776.275043576,None,776.275043576,None,776.275043576,None,776.275043576,None,774.968899316,775.475299136,774.968899316,775.475299136,774.968899316,775.475299136,None,None,down,3.101618239000004,776.275043576,None,None,None,c,0.24948249099998066,779.447190535,None,779.740345545,None,,24,9,11,,,,,103,32,2022_Sep_08_1409,templeton_exp2A_SD,2020.2.10,37.507892785878504,
,,,,,,,,,,,,,,,,,,,,,,68,0,68,0,,,,,,,,,,,,,,,,,,,,,,,,2.3000000000000003,2.4000000000000004,2.9000000000000004,,,,,,,,,,,,,,,,,,,,,,,,,,,,,,,,,,,68,759.586982669,0,6,3,9,4,8,2,5,1,0,1,780.313404176,None,0,6,3,9,4,8,2,5,,783.179049014,None,783.179049014,None,783.179049014,None,783.179049014,None,783.179049014,None,783.179049014,None,783.179049014,None,783.179049014,None,783.259017953,783.765540154,783.259017953,783.765540154,783.259017953,783.765540154,None,None,down,4.189637948999916,783.259017953,None,None,None,c,1.0286492999999837,787.5240851679999,None,788.590250926,None,,25,9,11,,,,,103,32,2022_Sep_08_1409,templeton_exp2A_SD,2020.2.10,37.507892785878504,
,,,,,,,,,,,,,,,,,,,,,,69,0,69,0,,,,,,,,,,,,,,,,,,,,,,,,1.7,1.8,2.3,,,,,,,,,,,,,,,,,,,,,,,,,,,,,,,,,,,69,768.436022039,4,5,3,7,0,9,1,6,1,0,1,789.163446418,None,4,5,3,7,0,9,1,6,,791.415970368,None,791.415970368,None,791.415970368,None,791.415970368,None,791.415970368,None,791.415970368,None,791.415970368,None,791.415970368,None,791.522598015,792.029082916,791.522598015,792.029082916,791.522598015,792.029082916,None,None,down,1.8461148879999882,791.522598015,None,None,None,x,0.2467529470000045,793.441818851,None,793.7350962209999,None,,26,9,11,,,,,103,32,2022_Sep_08_1409,templeton_exp2A_SD,2020.2.10,37.507892785878504,
,,,,,,,,,,,,,,,,,,,,,,70,0,70,0,,,,,,,,,,,,,,,,,,,,,,,,2.9000000000000004,1.6,2.9000000000000004,,,,,,,,,,,,,,,,,,,,,,,,,,,,,,,,,,,70,773.582966009,0,8,3,5,1,9,4,7,0,1,3,794.30821125,None,0,8,3,2,1,9,4,7,,797.760240273,None,797.760240273,None,797.760240273,None,797.760240273,None,797.760240273,None,797.760240273,None,797.760240273,None,797.760240273,None,796.45410298,796.960343222,796.45410298,796.960343222,796.45410298,796.960343222,None,None,left,2.1044050780000134,797.760240273,None,None,None,z,0.34532174000003124,799.9193383859999,None,800.29255745,None,,27,10,12,,,,,103,32,2022_Sep_08_1409,templeton_exp2A_SD,2020.2.10,37.507892785878504,
,,,,,,,,,,,,,,,,,,,,,,71,0,71,0,,,,,,,,,,,,,,,,,,,,,,,,2.9000000000000004,1.6,2.9000000000000004,,,,,,,,,,,,,,,,,,,,,,,,,,,,,,,,,,,71,780.139393752,3,9,2,5,4,8,1,7,0,1,3,800.865735575,None,3,9,2,0,4,8,1,7,,804.317757985,None,804.317757985,None,804.317757985,None,804.317757985,None,804.317757985,None,804.317757985,None,804.317757985,None,804.317757985,None,803.011582284,803.518050096,803.011582284,803.518050096,803.011582284,803.518050096,None,None,left,2.4028915469999674,804.317757985,None,None,None,x,0.28391743800000313,806.796757998,None,807.116705439,None,,28,11,13,,,,,103,32,2022_Sep_08_1409,templeton_exp2A_SD,2020.2.10,37.507892785878504,
,,,,,,,,,,,,,,,,,,,,,,72,0,72,0,,,,,,,,,,,,,,,,,,,,,,,,2.9000000000000004,1.6,2.9000000000000004,,,,,,,,,,,,,,,,,,,,,,,,,,,,,,,,,,,72,786.964317017,1,7,0,8,3,9,2,6,0,1,1,807.689769484,None,1,4,0,8,3,9,2,6,,811.141796204,None,811.141796204,None,811.141796204,None,811.141796204,None,811.141796204,None,811.141796204,None,811.141796204,None,811.141796204,None,809.8356312569999,810.342104258,809.8356312569999,810.342104258,809.8356312569999,810.342104258,None,None,down,3.0908524370000805,811.141796204,None,None,None,x,0.21739637400003176,814.287228875,None,814.553776235,None,,29,11,14,,,,,103,32,2022_Sep_08_1409,templeton_exp2A_SD,2020.2.10,37.507892785878504,
,,,,,,,,,,,,,,,,,,,,,,73,0,73,0,,,,,,,,,,,,,,,,,,,,,,,,2.9000000000000004,1.6,2.9000000000000004,,,,,,,,,,,,,,,,,,,,,,,,,,,,,,,,,,,73,794.401185701,3,8,2,6,0,7,4,9,0,1,4,815.126998725,None,3,8,2,6,1,7,4,9,,818.579011517,None,818.579011517,None,818.579011517,None,818.579011517,None,818.579011517,None,818.579011517,None,818.579011517,None,818.579011517,None,817.272757299,817.779274072,817.272757299,817.779274072,817.272757299,817.779274072,None,None,left,1.2936377690000427,818.579011517,None,None,None,x,0.33416012400005,819.938504937,None,820.311693512,None,,30,12,15,,,,,103,32,2022_Sep_08_1409,templeton_exp2A_SD,2020.2.10,37.507892785878504,
,,,,,,,,,,,,,,,,,,,,,,74,0,74,0,,,,,,,,,,,,,,,,,,,,,,,,2.9000000000000004,1.6,2.9000000000000004,,,,,,,,,,,,,,,,,,,,,,,,,,,,,,,,,,,74,800.158631008,1,6,2,8,4,9,3,5,0,0,5,820.884815198,None,1,6,2,8,4,9,3,5,,824.336813304,None,824.336813304,None,824.336813304,None,824.336813304,None,824.336813304,None,824.336813304,None,824.336813304,None,824.336813304,None,823.030664212,823.537088011,823.030664212,823.537088011,823.030664212,823.537088011,None,None,down,1.0638423850000436,824.336813304,None,None,None,x,0.7922728890000599,825.456385759,None,826.282789178,None,,31,13,16,,,,,103,32,2022_Sep_08_1409,templeton_exp2A_SD,2020.2.10,37.507892785878504,
,,,,,,,,,,,,,,,,,,,,,,75,0,75,0,,,,,,,,,,,,,,,,,,,,,,,,2.9000000000000004,1.6,2.9000000000000004,,,,,,,,,,,,,,,,,,,,,,,,,,,,,,,,,,,75,808.912742491,1,9,3,8,0,7,2,6,0,1,0,829.641452025,None,4,9,3,8,0,7,2,6,,833.09348491,None,833.09348491,None,833.09348491,None,833.09348491,None,833.09348491,None,833.09348491,None,833.09348491,None,833.09348491,None,831.787261204,832.293783552,831.787261204,832.293783552,831.787261204,832.293783552,None,None,left,1.3711716469999828,833.09348491,None,None,None,z,0.2837146849999499,834.532959064,None,834.852802485,None,,32,14,17,,,,,103,32,2022_Sep_08_1409,templeton_exp2A_SD,2020.2.10,37.507892785878504,
,,,,,,,,,,,,,,,,,,,,,,76,0,76,0,,,,,,,,,,,,,,,,,,,,,,,,3.3000000000000003,3.4000000000000004,3.9000000000000004,,,,,,,,,,,,,,,,,,,,,,,,,,,,,,,,,,,76,814.700198909,2,9,4,5,3,8,0,7,1,0,0,835.425893594,None,2,9,4,5,3,8,0,7,,839.277838202,None,839.277838202,None,839.277838202,None,839.277838202,None,839.277838202,None,839.277838202,None,839.277838202,None,839.277838202,None,839.38446706,839.890891754,839.38446706,839.890891754,839.38446706,839.890891754,None,None,down,1.0802033850000043,839.38446706,None,None,None,z,0.2859582199999977,840.530702193,None,840.85062368,None,,33,14,17,,,,,103,32,2022_Sep_08_1409,templeton_exp2A_SD,2020.2.10,37.507892785878504,
,,,,,,,,,,,,,,,,,,,,,,77,0,77,0,,,,,,,,,,,,,,,,,,,,,,,,1.9,2.0,2.5,,,,,,,,,,,,,,,,,,,,,,,,,,,,,,,,,,,77,820.697997472,0,8,2,7,1,6,3,5,1,1,3,841.423591146,None,0,8,2,4,1,6,3,5,,843.889450073,None,843.889450073,None,843.889450073,None,843.889450073,None,843.889450073,None,843.889450073,None,843.889450073,None,843.889450073,None,843.969350869,844.475830196,843.969350869,844.475830196,843.969350869,844.475830196,None,None,left,1.65527065699996,843.969350869,None,None,None,z,0.2506229660000372,845.702097655,None,845.995231888,None,,34,14,17,,,,,103,32,2022_Sep_08_1409,templeton_exp2A_SD,2020.2.10,37.507892785878504,
,,,,,,,,,,,,,,,,,,,,,,78,0,78,0,,,,,,,,,,,,,,,,,,,,,,,,2.9000000000000004,1.6,2.9000000000000004,,,,,,,,,,,,,,,,,,,,,,,,,,,,,,,,,,,78,825.841311599,4,6,1,7,0,5,2,9,0,1,2,846.568415974,None,4,6,3,7,0,5,2,9,,850.020368491,None,850.020368491,None,850.020368491,None,850.020368491,None,850.020368491,None,850.020368491,None,850.020368491,None,850.020368491,None,848.714256658,849.220691924,848.714256658,849.220691924,848.714256658,849.220691924,None,None,left,0.8682792220000692,850.020368491,None,None,None,z,0.2712280279999959,850.953444035,None,851.273230676,None,,35,15,18,,,,,103,32,2022_Sep_08_1409,templeton_exp2A_SD,2020.2.10,37.507892785878504,
,,,,,,,,,,,,,,,,,,,,,,79,0,79,0,,,,,,,,,,,,,,,,,,,,,,,,2.5,2.6,3.1,,,,,,,,,,,,,,,,,,,,,,,,,,,,,,,,,,,79,831.120579561,4,5,0,8,3,6,1,7,1,0,7,851.84640653,None,4,5,0,8,3,6,1,7,,854.898589672,None,854.898589672,None,854.898589672,None,854.898589672,None,854.898589672,None,854.898589672,None,854.898589672,None,854.898589672,None,855.005180539,855.511688836,855.005180539,855.511688836,855.005180539,855.511688836,None,None,down,1.123473004999937,855.005180539,None,None,None,z,0.2279774930000258,856.20469614,None,856.4713554369999,None,,36,15,18,,,,,103,32,2022_Sep_08_1409,templeton_exp2A_SD,2020.2.10,37.507892785878504,
,,,,,,,,,,,,,,,,,,,,,,80,0,80,0,,,,,,,,,,,,,,,,,,,,,,,,2.9000000000000004,1.6,2.9000000000000004,,,,,,,,,,,,,,,,,,,,,,,,,,,,,,,,,,,80,836.317298798,3,5,4,6,1,9,2,7,0,1,7,857.044442184,None,3,5,4,6,1,9,2,0,,860.49646653,None,860.49646653,None,860.49646653,None,860.49646653,None,860.49646653,None,860.49646653,None,860.49646653,None,860.49646653,None,859.190217073,859.696797458,859.190217073,859.696797458,859.190217073,859.696797458,None,None,left,0.9681905639999968,860.49646653,None,None,None,z,0.5046641159999581,861.5359990009999,None,862.069170838,None,,37,16,19,,,,,103,32,2022_Sep_08_1409,templeton_exp2A_SD,2020.2.10,37.507892785878504,
,,,,,,,,,,,,,,,,,,,,,,81,0,81,0,,,,,,,,,,,,,,,,,,,,,,,,3.3000000000000003,3.4000000000000004,3.9000000000000004,,,,,,,,,,,,,,,,,,,,,,,,,,,,,,,,,,,81,841.915267456,1,6,2,7,4,9,3,5,1,1,3,862.642254996,None,1,6,2,0,4,9,3,5,,866.494193356,None,866.494193356,None,866.494193356,None,866.494193356,None,866.494193356,None,866.494193356,None,866.494193356,None,866.494193356,None,866.6008198659999,867.107257302,866.6008198659999,867.107257302,866.6008198659999,867.107257302,None,None,left,2.703929090000088,866.6008198659999,None,None,None,z,0.2596380809999346,869.373020953,None,869.666325727,None,,38,16,19,,,,,103,32,2022_Sep_08_1409,templeton_exp2A_SD,2020.2.10,37.507892785878504,
,,,,,,,,,,,,,,,,,,,,,,82,0,82,0,,,,,,,,,,,,,,,,,,,,,,,,2.7,2.8000000000000003,3.3000000000000003,,,,,,,,,,,,,,,,,,,,,,,,,,,,,,,,,,,82,849.513818089,3,7,4,6,0,5,1,8,1,0,6,870.2393789179999,None,3,7,4,6,0,5,1,8,,873.504799739,None,873.504799739,None,873.504799739,None,873.504799739,None,873.504799739,None,873.504799739,None,873.504799739,None,873.504799739,None,873.584836082,874.091265757,873.584836082,874.091265757,873.584836082,874.091265757,None,None,left,2.1518331949999947,873.584836082,None,None,None,x,0.4513377670000409,875.797335238,None,876.277119964,None,,39,16,19,,,,,103,32,2022_Sep_08_1409,templeton_exp2A_SD,2020.2.10,37.507892785878504,
,,,,,,,,,,,,,,,,,,,,,,83,0,83,0,,,,,,,,,,,,,,,,,,,,,,,,2.1,2.2,2.7,,,,,,,,,,,,,,,,,,,,,,,,,,,,,,,,,,,83,856.123463092,0,5,2,6,4,7,1,9,1,0,2,876.850238153,None,0,5,2,6,4,7,1,9,,879.502524883,None,879.502524883,None,879.502524883,None,879.502524883,None,879.502524883,None,879.502524883,None,879.502524883,None,879.502524883,None,879.609189762,880.115572015,879.609189762,880.115572015,879.609189762,880.115572015,None,None,down,5.383469409999975,879.609189762,None,None,None,c,0.28151392600000236,885.047161824,None,885.367040359,None,,40,16,19,,,,,103,32,2022_Sep_08_1409,templeton_exp2A_SD,2020.2.10,37.507892785878504,
,,,,,,,,,,,,,,,,,,,,,,84,0,84,0,,,,,,,,,,,,,,,,,,,,,,,,3.5,3.6,4.1,,,,,,,,,,,,,,,,,,,,,,,,,,,,,,,,,,,84,865.214083378,3,5,4,9,2,8,0,7,1,1,7,885.940119282,None,3,5,4,9,2,8,0,1,,890.005202299,None,890.005202299,None,890.005202299,None,890.005202299,None,890.005202299,None,890.005202299,None,890.005202299,None,890.005202299,None,890.085284234,890.591729236,890.085284234,890.591729236,890.085284234,890.591729236,None,None,down,2.699383156999943,890.085284234,None,None,None,x,0.4071481739999854,892.857523714,None,893.310698225,None,,41,16,19,,,,,103,32,2022_Sep_08_1409,templeton_exp2A_SD,2020.2.10,37.507892785878504,
,,,,,,,,,,,,,,,,,,,,,,85,0,85,0,,,,,,,,,,,,,,,,,,,,,,,,2.9000000000000004,1.6,2.9000000000000004,,,,,,,,,,,,,,,,,,,,,,,,,,,,,,,,,,,85,873.157843993,0,7,1,5,3,8,4,6,0,0,6,893.883816681,None,0,7,1,5,3,8,4,6,,897.3358423,None,897.3358423,None,897.3358423,None,897.3358423,None,897.3358423,None,897.3358423,None,897.3358423,None,897.3358423,None,896.029677481,896.5360696619999,896.029677481,896.5360696619999,896.029677481,896.5360696619999,None,None,down,1.336801788999992,897.3358423,None,None,None,x,0.40405646899989733,898.748608164,None,899.201692398,None,,42,17,20,,,,,103,32,2022_Sep_08_1409,templeton_exp2A_SD,2020.2.10,37.507892785878504,
,,,,,,,,,,,,,,,,,,,,,,86,0,86,0,,,,,,,,,,,,,,,,,,,,,,,,3.5,3.6,4.1,,,,,,,,,,,,,,,,,,,,,,,,,,,,,,,,,,,86,879.048677933,0,7,2,8,4,9,3,5,1,0,5,899.774883122,None,0,7,2,8,4,9,3,5,,903.840004699,None,903.840004699,None,903.840004699,None,903.840004699,None,903.840004699,None,903.840004699,None,903.840004699,None,903.840004699,None,903.919963744,904.426454736,903.919963744,904.426454736,903.919963744,904.426454736,None,None,down,2.4806602380000413,903.919963744,None,None,None,c,0.29761564099999305,906.479049394,None,906.825498975,None,,43,17,20,,,,,103,32,2022_Sep_08_1409,templeton_exp2A_SD,2020.2.10,37.507892785878504,
,,,,,,,,,,,,,,,,,,,,,,87,0,87,0,,,,,,,,,,,,,,,,,,,,,,,,2.9000000000000004,1.6,2.9000000000000004,,,,,,,,,,,,,,,,,,,,,,,,,,,,,,,,,,,87,886.67298593,0,9,3,8,4,7,1,6,0,0,7,907.39869566,None,0,9,3,8,4,7,1,6,,910.8506709549999,None,910.8506709549999,None,910.8506709549999,None,910.8506709549999,None,910.8506709549999,None,910.8506709549999,None,910.8506709549999,None,910.8506709549999,None,909.544547161,910.051023635,909.544547161,910.051023635,909.544547161,910.051023635,None,None,down,1.9659793680000348,910.8506709549999,None,None,None,x,0.548010007999892,912.87661663,None,913.4630681199999,None,,44,18,21,,,,,103,32,2022_Sep_08_1409,templeton_exp2A_SD,2020.2.10,37.507892785878504,
,,,,,,,,,,,,,,,,,,,,,,88,0,88,0,,,,,,,,,,,,,,,,,,,,,,,,2.9000000000000004,1.6,2.9000000000000004,,,,,,,,,,,,,,,,,,,,,,,,,,,,,,,,,,,88,893.3102019239999,4,7,3,5,2,8,1,6,0,1,1,914.0361183340001,None,4,0,3,5,2,8,1,6,,917.488131456,None,917.488131456,None,917.488131456,None,917.488131456,None,917.488131456,None,917.488131456,None,917.488131456,None,917.488131456,None,916.182030273,916.688469192,916.182030273,916.688469192,916.182030273,916.688469192,None,None,left,2.7844796839999617,917.488131456,None,None,None,c,0.26026706999982707,920.3404047659999,None,920.6336722799999,None,,45,19,22,,,,,103,32,2022_Sep_08_1409,templeton_exp2A_SD,2020.2.10,37.507892785878504,
,,,,,,,,,,,,,,,,,,,,,,89,0,89,0,,,,,,,,,,,,,,,,,,,,,,,,2.7,2.8000000000000003,3.3000000000000003,,,,,,,,,,,,,,,,,,,,,,,,,,,,,,,,,,,89,900.4805706660001,2,5,3,9,4,6,0,8,1,0,1,921.2067002419999,None,2,5,3,9,4,6,0,8,,924.4721450889999,None,924.4721450889999,None,924.4721450889999,None,924.4721450889999,None,924.4721450889999,None,924.4721450889999,None,924.4721450889999,None,924.4721450889999,None,924.552197062,925.0586357709999,924.552197062,925.0586357709999,924.552197062,925.0586357709999,None,None,down,2.4884586489999947,924.552197062,None,None,None,x,2.4414945879998413,927.1112248259999,None,929.590263673,None,,46,19,22,,,,,103,32,2022_Sep_08_1409,templeton_exp2A_SD,2020.2.10,37.507892785878504,
,,,,,,,,,,,,,,,,,,,,,,90,0,90,0,,,,,,,,,,,,,,,,,,,,,,,,1.9,2.0,2.5,,,,,,,,,,,,,,,,,,,,,,,,,,,,,,,,,,,90,911.180206767,2,5,0,8,4,6,1,7,1,0,1,931.909349793,None,2,5,0,8,4,6,1,7,,934.3751082829999,None,934.3751082829999,None,934.3751082829999,None,934.3751082829999,None,934.3751082829999,None,934.3751082829999,None,934.3751082829999,None,934.3751082829999,None,934.455068252,934.961579578,934.455068252,934.961579578,934.455068252,934.961579578,None,None,down,2.4655913090000467,934.455068252,None,None,None,z,0.24521420299993224,936.987447019,None,937.280756677,None,,47,19,22,,,,,103,32,2022_Sep_08_1409,templeton_exp2A_SD,2020.2.10,37.507892785878504,
,,,,,,,,,,,,,,,,,,,,,,91,0,91,0,,,,,,,,,,,,,,,,,,,,,,,,2.9000000000000004,1.6,2.9000000000000004,,,,,,,,,,,,,,,,,,,,,,,,,,,,,,,,,,,91,917.128007771,0,6,3,8,2,9,4,5,0,1,2,937.8538012920001,None,0,6,1,8,2,9,4,5,,941.3057394570001,None,941.3057394570001,None,941.3057394570001,None,941.3057394570001,None,941.3057394570001,None,941.3057394570001,None,941.3057394570001,None,941.3057394570001,None,939.9996654199999,940.5061039059999,939.9996654199999,940.5061039059999,939.9996654199999,940.5061039059999,None,None,left,1.4469696160001604,941.3057394570001,None,None,None,z,0.3033705600000758,942.8252861169999,None,943.1718127449999,None,,48,20,23,,,,,103,32,2022_Sep_08_1409,templeton_exp2A_SD,2020.2.10,37.507892785878504,
,,,,,,,,,,,,,,,,,,,,,,92,0,92,0,,,,,,,,,,,,,,,,,,,,,,,,2.9000000000000004,1.6,2.9000000000000004,,,,,,,,,,,,,,,,,,,,,,,,,,,,,,,,,,,92,923.019153908,2,7,4,8,3,5,0,6,0,1,4,943.744859482,None,2,7,4,8,1,5,0,6,,947.196900335,None,947.196900335,None,947.196900335,None,947.196900335,None,947.196900335,None,947.196900335,None,947.196900335,None,947.196900335,None,945.8907715329999,946.397241032,945.8907715329999,946.397241032,945.8907715329999,946.397241032,None,None,left,2.123743852999951,947.196900335,None,None,None,z,0.3458706090000305,949.3827837020001,None,949.7559285320001,None,,49,21,24,1,0.875,1,,103,32,2022_Sep_08_1409,templeton_exp2A_SD,2020.2.10,37.507892785878504,
,,,,,,,,,,,,,,,,,,,,,,93,0,93,0,,,,,,,,,,,,,,,,,,,,,,,,1.5,1.6,2.1,,,,,,,,,,,,,,,,,,,,,,,,,,,,,,,,,,,93,929.603076943,4,8,1,9,2,6,0,5,1,1,4,950.3290522519999,None,4,8,1,9,3,6,0,5,,952.394972482,None,952.394972482,None,952.394972482,None,952.394972482,None,952.394972482,None,952.394972482,None,952.394972482,None,952.394972482,None,952.474938905,952.98142396,952.474938905,952.98142396,952.474938905,952.98142396,None,None,left,2.013682304999975,952.474938905,None,None,None,z,0.26250489199992444,954.554152579,None,954.847381389,None,,50,21,24,,,,,103,32,2022_Sep_08_1409,templeton_exp2A_SD,2020.2.10,37.507892785878504,
,,,,,,,,,,,,,,,,,,,,,,94,0,94,0,,,,,,,,,,,,,,,,,,,,,,,,2.7,2.8000000000000003,3.3000000000000003,,,,,,,,,,,,,,,,,,,,,,,,,,,,,,,,,,,94,934.6945941580001,4,8,0,9,3,5,2,7,1,1,6,955.420466111,None,4,8,0,9,3,5,1,7,,958.685934035,None,958.685934035,None,958.685934035,None,958.685934035,None,958.685934035,None,958.685934035,None,958.685934035,None,958.685934035,None,958.7658936739999,959.272330494,958.7658936739999,959.272330494,958.7658936739999,959.272330494,None,None,down,2.1787725949998276,958.7658936739999,None,None,None,x,0.5077190209999571,961.0049758929999,None,961.5648410629999,None,,51,21,24,,,,,103,32,2022_Sep_08_1409,templeton_exp2A_SD,2020.2.10,37.507892785878504,
,,,,,,,,,,,,,,,,,,,,,,95,0,95,0,,,,,,,,,,,,,,,,,,,,,,,,3.1,3.2,3.7,,,,,,,,,,,,,,,,,,,,,,,,,,,,,,,,,,,95,941.412441673,0,9,3,6,1,7,2,8,1,0,0,962.137843407,None,0,9,3,6,1,7,2,8,,965.8031499639999,None,965.8031499639999,None,965.8031499639999,None,965.8031499639999,None,965.8031499639999,None,965.8031499639999,None,965.8031499639999,None,965.8031499639999,None,965.8832042419999,966.389589015,965.8832042419999,966.389589015,965.8832042419999,966.389589015,None,None,down,5.973395565999908,965.8832042419999,None,None,None,c,0.234425728999895,971.934247038,None,972.200811833,None,,52,21,24,,,,,103,32,2022_Sep_08_1409,templeton_exp2A_SD,2020.2.10,37.507892785878504,
,,,,,,,,,,,,,,,,,,,,,,96,0,96,0,,,,,,,,,,,,,,,,,,,,,,,,2.9000000000000004,1.6,2.9000000000000004,,,,,,,,,,,,,,,,,,,,,,,,,,,,,,,,,,,96,952.0478871490001,1,8,0,6,3,9,4,5,0,1,0,972.7738275419999,None,2,8,0,6,3,9,4,5,,976.2259098699999,None,976.2259098699999,None,976.2259098699999,None,976.2259098699999,None,976.2259098699999,None,976.2259098699999,None,976.2259098699999,None,976.2259098699999,None,974.919733838,975.426248046,974.919733838,975.426248046,974.919733838,975.426248046,None,None,left,1.0707344830000238,976.2259098699999,None,None,None,z,0.2525001610001709,977.3721013950001,None,977.6653944929999,None,,53,22,25,,,,,103,32,2022_Sep_08_1409,templeton_exp2A_SD,2020.2.10,37.507892785878504,
,,,,,,,,,,,,,,,,,,,,,,97,0,97,0,,,,,,,,,,,,,,,,,,,,,,,,2.9000000000000004,1.6,2.9000000000000004,,,,,,,,,,,,,,,,,,,,,,,,,,,,,,,,,,,97,957.512528286,1,8,4,5,3,9,0,6,0,1,7,978.238444527,None,1,8,4,5,3,9,0,2,,981.690475199,None,981.690475199,None,981.690475199,None,981.690475199,None,981.690475199,None,981.690475199,None,981.690475199,None,981.690475199,None,980.38436639,980.8908164469999,980.38436639,980.8908164469999,980.38436639,980.8908164469999,None,None,down,2.5501807210000607,981.690475199,None,None,None,x,0.5137607260001005,984.302911451,None,984.8626842809999,None,,54,22,26,,,,,103,32,2022_Sep_08_1409,templeton_exp2A_SD,2020.2.10,37.507892785878504,
,,,,,,,,,,,,,,,,,,,,,,98,0,98,0,,,,,,,,,,,,,,,,,,,,,,,,1.9,2.0,2.5,,,,,,,,,,,,,,,,,,,,,,,,,,,,,,,,,,,98,964.709839407,4,7,3,6,0,5,2,8,1,1,2,985.4358109570001,None,4,7,1,6,0,5,2,8,,987.901486682,None,987.901486682,None,987.901486682,None,987.901486682,None,987.901486682,None,987.901486682,None,987.901486682,None,987.901486682,None,987.981491945,988.4879319649999,987.981491945,988.4879319649999,987.981491945,988.4879319649999,None,None,left,2.731157899999971,987.981491945,None,None,None,x,0.9242437319999226,990.7804313910001,None,991.740010578,None,,55,22,26,,,,,103,32,2022_Sep_08_1409,templeton_exp2A_SD,2020.2.10,37.507892785878504,
,,,,,,,,,,,,,,,,,,,,,,99,0,99,0,,,,,,,,,,,,,,,,,,,,,,,,1.7,1.8,2.3,,,,,,,,,,,,,,,,,,,,,,,,,,,,,,,,,,,99,971.5870511100001,2,6,4,8,3,9,1,5,1,1,2,992.313190377,None,2,6,0,8,3,9,1,5,,994.565662346,None,994.565662346,None,994.565662346,None,994.565662346,None,994.565662346,None,994.565662346,None,994.565662346,None,994.565662346,None,994.6722170119999,995.1787189009999,994.6722170119999,995.1787189009999,994.6722170119999,995.1787189009999,None,None,left,2.664493458999914,994.6722170119999,None,None,None,c,0.2894175169999471,997.391255822,None,997.7111439600001,None,,56,22,26,,,,,103,32,2022_Sep_08_1409,templeton_exp2A_SD,2020.2.10,37.507892785878504,
,,,,,,,,,,,,,,,,,,,,,,100,0,100,0,,,,,,,,,,,,,,,,,,,,,,,,1.9,2.0,2.5,,,,,,,,,,,,,,,,,,,,,,,,,,,,,,,,,,,100,977.5583809630001,0,7,1,6,2,9,3,8,1,1,5,998.2842718459999,None,0,7,1,6,2,4,3,8,,1000.7499928100001,None,1000.7499928100001,None,1000.7499928100001,None,1000.7499928100001,None,1000.7499928100001,None,1000.7499928100001,None,1000.7499928100001,None,1000.7499928100001,None,1000.856649094,1001.3630903389999,1000.856649094,1001.3630903389999,1000.856649094,1001.3630903389999,None,None,down,3.0239888619998965,1000.856649094,None,None,None,x,0.2438798380001117,1003.9487823929999,None,1004.241962763,None,,57,22,26,,,,,103,32,2022_Sep_08_1409,templeton_exp2A_SD,2020.2.10,37.507892785878504,
,,,,,,,,,,,,,,,,,,,,,,101,0,101,0,,,,,,,,,,,,,,,,,,,,,,,,2.9000000000000004,1.6,2.9000000000000004,,,,,,,,,,,,,,,,,,,,,,,,,,,,,,,,,,,101,984.0882071980001,1,9,2,6,0,7,3,5,0,1,4,1004.815116987,None,1,9,2,6,4,7,3,5,,1008.267144058,None,1008.267144058,None,1008.267144058,None,1008.267144058,None,1008.267144058,None,1008.267144058,None,1008.267144058,None,1008.267144058,None,1006.960871924,1007.4674420229999,1006.960871924,1007.4674420229999,1006.960871924,1007.4674420229999,None,None,left,2.1975307990001056,1008.267144058,None,None,None,x,0.8117034139997941,1010.532952945,None,1011.385973168,None,,58,23,27,,,,,103,32,2022_Sep_08_1409,templeton_exp2A_SD,2020.2.10,37.507892785878504,
,,,,,,,,,,,,,,,,,,,,,,102,0,102,0,,,,,,,,,,,,,,,,,,,,,,,,1.9,2.0,2.5,,,,,,,,,,,,,,,,,,,,,,,,,,,,,,,,,,,102,991.2321438130001,3,6,0,7,1,5,4,9,1,0,6,1011.959038939,None,3,6,0,7,1,5,4,9,,1014.4248069380001,None,1014.4248069380001,None,1014.4248069380001,None,1014.4248069380001,None,1014.4248069380001,None,1014.4248069380001,None,1014.4248069380001,None,1014.4248069380001,None,1014.5047420619999,1015.0112554949999,1014.5047420619999,1015.0112554949999,1014.5047420619999,1015.0112554949999,None,None,down,2.743910087000131,1014.5047420619999,None,None,None,x,0.3530047269998704,1017.303631173,None,1017.7035018419999,None,,59,23,27,,,,,103,32,2022_Sep_08_1409,templeton_exp2A_SD,2020.2.10,37.507892785878504,
,,,,,,,,,,,,,,,,,,,,,,103,0,103,0,,,,,,,,,,,,,,,,,,,,,,,,1.5,1.6,2.1,,,,,,,,,,,,,,,,,,,,,,,,,,,,,,,,,,,103,997.5505287530001,0,9,3,5,4,6,1,8,1,1,6,1018.27668561,None,0,9,3,5,4,6,2,8,,1020.34255687,None,1020.34255687,None,1020.34255687,None,1020.34255687,None,1020.34255687,None,1020.34255687,None,1020.34255687,None,1020.34255687,None,1020.422470036,1020.929022084,1020.422470036,1020.929022084,1020.422470036,1020.929022084,None,None,left,1.9621959210001023,1020.422470036,None,None,None,x,0.35223129600012726,1022.448430531,None,1022.8482747830001,None,,60,23,27,,,,,103,32,2022_Sep_08_1409,templeton_exp2A_SD,2020.2.10,37.507892785878504,
,,,,,,,,,,,,,,,,,,,,,,104,0,104,0,,,,,,,,,,,,,,,,,,,,,,,,2.9000000000000004,1.6,2.9000000000000004,,,,,,,,,,,,,,,,,,,,,,,,,,,,,,,,,,,104,1002.694947889,3,9,1,5,4,6,2,8,0,1,6,1023.4213211409999,None,3,9,1,5,4,6,0,8,,1026.873389419,None,1026.873389419,None,1026.873389419,None,1026.873389419,None,1026.873389419,None,1026.873389419,None,1026.873389419,None,1026.873389419,None,1025.567244738,1026.073687731,1025.567244738,1026.073687731,1025.567244738,1026.073687731,None,None,left,1.7832553819998793,1026.873389419,None,None,None,z,0.5518371099999513,1028.712725499,None,1029.298998897,None,,61,24,28,,,,,103,32,2022_Sep_08_1409,templeton_exp2A_SD,2020.2.10,37.507892785878504,
,,,,,,,,,,,,,,,,,,,,,,105,0,105,0,,,,,,,,,,,,,,,,,,,,,,,,3.3000000000000003,3.4000000000000004,3.9000000000000004,,,,,,,,,,,,,,,,,,,,,,,,,,,,,,,,,,,105,1010.2755428869999,3,5,4,6,1,9,0,8,1,0,1,1031.005158123,None,3,5,4,6,1,9,0,8,,1034.870447852,None,1034.870447852,None,1034.870447852,None,1034.870447852,None,1034.870447852,None,1034.870447852,None,1034.870447852,None,1034.870447852,None,1034.950360817,1035.456804883,1034.950360817,1035.456804883,1034.950360817,1035.456804883,None,None,down,1.1543508229999588,1034.950360817,None,None,None,x,0.4080549620000511,1036.176609337,None,1036.629724171,None,,62,24,28,,,,,103,32,2022_Sep_08_1409,templeton_exp2A_SD,2020.2.10,37.507892785878504,
,,,,,,,,,,,,,,,,,,,,,,106,0,106,0,,,,,,,,,,,,,,,,,,,,,,,,2.9000000000000004,1.6,2.9000000000000004,,,,,,,,,,,,,,,,,,,,,,,,,,,,,,,,,,,106,1016.4773951440001,3,7,2,6,0,5,1,8,0,1,0,1037.202767069,None,4,7,2,6,0,5,1,8,,1040.654827089,None,1040.654827089,None,1040.654827089,None,1040.654827089,None,1040.654827089,None,1040.654827089,None,1040.654827089,None,1040.654827089,None,1039.348691061,1039.855186608,1039.348691061,1039.855186608,1039.348691061,1039.855186608,None,None,left,1.2498546059998716,1040.654827089,None,None,None,x,0.22363253100002112,1041.961040015,None,1042.227611032,None,,63,25,29,,,,,103,32,2022_Sep_08_1409,templeton_exp2A_SD,2020.2.10,37.507892785878504,
,,,,,,,,,,,,,,,,,,,,,,107,0,107,0,,,,,,,,,,,,,,,,,,,,,,,,1.7,1.8,2.3,,,,,,,,,,,,,,,,,,,,,,,,,,,,,,,,,,,107,1022.0740004380001,3,9,0,5,2,6,4,8,1,1,0,1042.800712915,None,1,9,0,5,2,6,4,8,,1045.05320902,None,1045.05320902,None,1045.05320902,None,1045.05320902,None,1045.05320902,None,1045.05320902,None,1045.05320902,None,1045.05320902,None,1045.159790913,1045.666307688,1045.159790913,1045.666307688,1045.159790913,1045.666307688,None,None,left,1.2568641569998817,1045.159790913,None,None,None,z,0.2920658440000352,1046.492607465,None,1046.812487069,None,,64,25,29,,,,,103,32,2022_Sep_08_1409,templeton_exp2A_SD,2020.2.10,37.507892785878504,
,,,,,,,,,,,,,,,,,,,,,,108,0,108,0,,,,,,,,,,,,,,,,,,,,,,,,2.9000000000000004,1.6,2.9000000000000004,,,,,,,,,,,,,,,,,,,,,,,,,,,,,,,,,,,108,1026.660106678,2,9,4,8,0,6,1,7,0,1,7,1047.38562899,None,2,9,4,8,0,6,1,3,,1050.837678711,None,1050.837678711,None,1050.837678711,None,1050.837678711,None,1050.837678711,None,1050.837678711,None,1050.837678711,None,1050.837678711,None,1049.531456553,1050.037945367,1049.531456553,1050.037945367,1049.531456553,1050.037945367,None,None,left,0.9068777039999532,1050.837678711,None,None,None,z,0.27274902499993914,1051.823922297,None,1052.14383626,None,,65,26,30,,,,,103,32,2022_Sep_08_1409,templeton_exp2A_SD,2020.2.10,37.507892785878504,
,,,,,,,,,,,,,,,,,,,,,,109,0,109,0,,,,,,,,,,,,,,,,,,,,,,,,2.5,2.6,3.1,,,,,,,,,,,,,,,,,,,,,,,,,,,,,,,,,,,109,1031.990985029,4,8,0,6,2,5,3,7,1,1,4,1052.716909673,None,4,8,0,6,1,5,3,7,,1055.76907719,None,1055.76907719,None,1055.76907719,None,1055.76907719,None,1055.76907719,None,1055.76907719,None,1055.76907719,None,1055.76907719,None,1055.875732071,1056.382239542,1055.875732071,1056.382239542,1055.875732071,1056.382239542,None,None,left,1.94892272900006,1055.875732071,None,None,None,c,0.27508266200015896,1057.901589815,None,1058.22150558,None,,66,26,30,,,,,103,32,2022_Sep_08_1409,templeton_exp2A_SD,2020.2.10,37.507892785878504,
,,,,,,,,,,,,,,,,,,,,,,110,0,110,0,,,,,,,,,,,,,,,,,,,,,,,,3.1,3.2,3.7,,,,,,,,,,,,,,,,,,,,,,,,,,,,,,,,,,,110,1038.0685396160002,1,9,4,6,2,5,0,8,1,1,1,1058.794665593,None,1,3,4,6,2,5,0,8,,1062.459900022,None,1062.459900022,None,1062.459900022,None,1062.459900022,None,1062.459900022,None,1062.459900022,None,1062.459900022,None,1062.459900022,None,1062.539872451,1063.046354302,1062.539872451,1063.046354302,1062.539872451,1063.046354302,None,None,down,1.8047816050000165,1062.539872451,None,None,None,x,0.2587878609999734,1064.405873301,None,1064.699104253,None,,67,26,30,,,,,103,32,2022_Sep_08_1409,templeton_exp2A_SD,2020.2.10,37.507892785878504,
,,,,,,,,,,,,,,,,,,,,,,111,0,111,0,,,,,,,,,,,,,,,,,,,,,,,,2.9000000000000004,1.6,2.9000000000000004,,,,,,,,,,,,,,,,,,,,,,,,,,,,,,,,,,,111,1044.546374382,4,6,3,5,2,8,1,7,0,0,7,1065.272207107,None,4,6,3,5,2,8,1,7,,1068.724229058,None,1068.724229058,None,1068.724229058,None,1068.724229058,None,1068.724229058,None,1068.724229058,None,1068.724229058,None,1068.724229058,None,1067.4179602899999,1067.924533947,1067.4179602899999,1067.924533947,1067.4179602899999,1067.924533947,None,None,down,1.3884223889999703,1068.724229058,None,None,None,z,0.23431904600010967,1070.190346979,None,1070.456886379,None,,68,27,31,,,,,103,32,2022_Sep_08_1409,templeton_exp2A_SD,2020.2.10,37.507892785878504,
,,,,,,,,,,,,,,,,,,,,,,112,0,112,0,,,,,,,,,,,,,,,,,,,,,,,,2.9,3.0,3.5,,,,,,,,,,,,,,,,,,,,,,,,,,,,,,,,,,,112,1050.3041646360002,3,5,4,9,0,6,1,8,1,1,4,1071.030029817,None,3,5,4,9,2,6,1,8,,1074.482044918,None,1074.482044918,None,1074.482044918,None,1074.482044918,None,1074.482044918,None,1074.482044918,None,1074.482044918,None,1074.482044918,None,1074.588639512,1075.0951519,1074.588639512,1075.0951519,1074.588639512,1075.0951519,None,None,down,1.6919605509999656,1074.588639512,None,None,None,x,0.21265042000004541,1076.34800871,None,1076.587867332,None,,69,27,31,,,,,103,32,2022_Sep_08_1409,templeton_exp2A_SD,2020.2.10,37.507892785878504,
,,,,,,,,,,,,,,,,,,,,,,113,0,113,0,,,,,,,,,,,,,,,,,,,,,,,,2.9000000000000004,1.6,2.9000000000000004,,,,,,,,,,,,,,,,,,,,,,,,,,,,,,,,,,,113,1056.435523997,0,6,1,8,3,7,2,5,0,0,6,1077.161035343,None,0,6,1,8,3,7,2,5,,1080.613059893,None,1080.613059893,None,1080.613059893,None,1080.613059893,None,1080.613059893,None,1080.613059893,None,1080.613059893,None,1080.613059893,None,1079.306856602,1079.813331764,1079.306856602,1079.813331764,1079.306856602,1079.813331764,None,None,down,1.0596066969999356,1080.613059893,None,None,None,x,0.5480374160001702,1081.732633632,None,1082.319094282,None,,70,28,32,,,,,103,32,2022_Sep_08_1409,templeton_exp2A_SD,2020.2.10,37.507892785878504,
,,,,,,,,,,,,,,,,,,,,,,114,0,114,0,,,,,,,,,,,,,,,,,,,,,,,,2.9000000000000004,1.6,2.9000000000000004,,,,,,,,,,,,,,,,,,,,,,,,,,,,,,,,,,,114,1062.166268161,1,5,0,6,3,8,2,9,0,0,4,1082.892149297,None,1,5,0,6,3,8,2,9,,1086.34418585,None,1086.34418585,None,1086.34418585,None,1086.34418585,None,1086.34418585,None,1086.34418585,None,1086.34418585,None,1086.34418585,None,1085.038018815,1085.544520865,1085.038018815,1085.544520865,1085.038018815,1085.544520865,None,None,down,1.3844743919999019,1086.34418585,None,None,None,z,0.2090388910000911,1087.783626008,None,1088.023494443,None,,71,29,33,,,,,103,32,2022_Sep_08_1409,templeton_exp2A_SD,2020.2.10,37.507892785878504,
,,,,,,,,,,,,,,,,,,,,,,115,0,115,0,,,,,,,,,,,,,,,,,,,,,,,,1.9,2.0,2.5,,,,,,,,,,,,,,,,,,,,,,,,,,,,,,,,,,,115,1067.8709057730002,1,7,0,5,3,8,2,9,1,1,4,1088.596703785,None,1,7,0,5,4,8,2,9,,1091.06243804,None,1091.06243804,None,1091.06243804,None,1091.06243804,None,1091.06243804,None,1091.06243804,None,1091.06243804,None,1091.06243804,None,1091.14240108,1091.64885551,1091.14240108,1091.64885551,1091.14240108,1091.64885551,None,None,left,1.6422616140000628,1091.14240108,None,None,None,z,0.2642424400000891,1092.848425999,None,1093.141599702,None,,72,29,33,,,,,103,32,2022_Sep_08_1409,templeton_exp2A_SD,2020.2.10,37.507892785878504,
,,,,,,,,,,,,,,,,,,,,,,116,0,116,0,,,,,,,,,,,,,,,,,,,,,,,,1.9,2.0,2.5,,,,,,,,,,,,,,,,,,,,,,,,,,,,,,,,,,,116,1072.9886913310002,1,7,2,8,4,9,3,6,1,1,3,1093.714724963,None,1,7,2,0,4,9,3,6,,1096.180449027,None,1096.180449027,None,1096.180449027,None,1096.180449027,None,1096.180449027,None,1096.180449027,None,1096.180449027,None,1096.180449027,None,1096.260430355,1096.766943031,1096.260430355,1096.766943031,1096.260430355,1096.766943031,None,None,down,1.2921815770000649,1096.260430355,None,None,None,z,1.0127483379999376,1097.619910621,None,1098.659519155,None,,73,29,33,,,,,103,32,2022_Sep_08_1409,templeton_exp2A_SD,2020.2.10,37.507892785878504,
,,,,,,,,,,,,,,,,,,,,,,117,0,117,0,,,,,,,,,,,,,,,,,,,,,,,,3.5,3.6,4.1,,,,,,,,,,,,,,,,,,,,,,,,,,,,,,,,,,,117,1078.5059111360001,1,8,0,6,4,9,2,5,1,0,7,1099.232685829,None,1,8,0,6,4,9,2,5,,1103.2977051,None,1103.2977051,None,1103.2977051,None,1103.2977051,None,1103.2977051,None,1103.2977051,None,1103.2977051,None,1103.2977051,None,1103.377767353,1103.884244903,1103.377767353,1103.884244903,1103.377767353,1103.884244903,None,None,left,2.6869148800001312,1103.377767353,None,None,None,c,0.27732175899996037,1106.123348686,None,1106.443236615,None,,74,29,33,,,,,103,32,2022_Sep_08_1409,templeton_exp2A_SD,2020.2.10,37.507892785878504,
,,,,,,,,,,,,,,,,,,,,,,118,0,118,0,,,,,,,,,,,,,,,,,,,,,,,,2.9000000000000004,1.6,2.9000000000000004,,,,,,,,,,,,,,,,,,,,,,,,,,,,,,,,,,,118,1086.2900540659998,3,7,1,8,4,6,2,5,0,1,0,1107.016382704,None,0,7,1,8,4,6,2,5,,1110.468418258,None,1110.468418258,None,1110.468418258,None,1110.468418258,None,1110.468418258,None,1110.468418258,None,1110.468418258,None,1110.468418258,None,1109.162192942,1109.668654,1109.162192942,1109.668654,1109.162192942,1109.668654,None,None,left,3.3082285800001046,1110.468418258,None,None,None,x,0.33890986799997336,1113.853763423,None,1114.226990974,None,,75,30,34,,,,,103,32,2022_Sep_08_1409,templeton_exp2A_SD,2020.2.10,37.507892785878504,
,,,,,,,,,,,,,,,,,,,,,,119,0,119,0,,,,,,,,,,,,,,,,,,,,,,,,3.3000000000000003,3.4000000000000004,3.9000000000000004,,,,,,,,,,,,,,,,,,,,,,,,,,,,,,,,,,,119,1094.0728940079998,2,6,0,7,3,5,1,9,1,0,6,1114.800096366,None,2,6,0,7,3,5,1,9,,1118.651915987,None,1118.651915987,None,1118.651915987,None,1118.651915987,None,1118.651915987,None,1118.651915987,None,1118.651915987,None,1118.651915987,None,1118.758610976,1119.265043106,1118.758610976,1119.265043106,1118.758610976,1119.265043106,None,None,down,2.5940999909998936,1118.758610976,None,None,None,x,0.32031822499993723,1121.424256657,None,1121.797404057,None,,76,30,34,,,,,103,32,2022_Sep_08_1409,templeton_exp2A_SD,2020.2.10,37.507892785878504,
,,,,,,,,,,,,,,,,,,,,,,120,0,120,0,,,,,,,,,,,,,,,,,,,,,,,,3.1,3.2,3.7,,,,,,,,,,,,,,,,,,,,,,,,,,,,,,,,,,,120,1107.865178077,0,9,4,5,1,6,3,7,1,0,2,1128.594877261,None,0,9,4,5,1,6,3,7,,1132.260164196,None,1132.260164196,None,1132.260164196,None,1132.260164196,None,1132.260164196,None,1132.260164196,None,1132.260164196,None,1132.260164196,None,1132.340027792,1132.846643564,1132.340027792,1132.846643564,1132.340027792,1132.846643564,None,None,down,2.22868253799993,1132.340027792,None,None,None,c,0.27206130700005815,1134.632600308,None,1134.952482118,None,,77,30,34,,,,,103,32,2022_Sep_08_1409,templeton_exp2A_SD,2020.2.10,37.507892785878504,
,,,,,,,,,,,,,,,,,,,,,,121,0,121,0,,,,,,,,,,,,,,,,,,,,,,,,2.9,3.0,3.5,,,,,,,,,,,,,,,,,,,,,,,,,,,,,,,,,,,121,1114.7998201649998,4,8,3,7,0,9,1,5,1,0,6,1135.525534292,None,4,8,3,7,0,9,1,5,,1138.977577176,None,1138.977577176,None,1138.977577176,None,1138.977577176,None,1138.977577176,None,1138.977577176,None,1138.977577176,None,1138.977577176,None,1139.084191136,1139.590664415,1139.084191136,1139.590664415,1139.084191136,1139.590664415,None,None,down,1.756427492000057,1139.084191136,None,None,None,z,0.29578728700016654,1140.89687508,None,1141.24338464,None,,78,30,34,,,,,103,32,2022_Sep_08_1409,templeton_exp2A_SD,2020.2.10,37.507892785878504,
,,,,,,,,,,,,,,,,,,,,,,122,0,122,0,,,,,,,,,,,,,,,,,,,,,,,,2.7,2.8000000000000003,3.3000000000000003,,,,,,,,,,,,,,,,,,,,,,,,,,,,,,,,,,,122,1121.0904711910002,0,7,1,5,3,6,4,8,1,1,5,1141.81655034,None,0,7,1,5,3,2,4,8,,1145.081955632,None,1145.081955632,None,1145.081955632,None,1145.081955632,None,1145.081955632,None,1145.081955632,None,1145.081955632,None,1145.081955632,None,1145.188514967,1145.69507229,1145.188514967,1145.69507229,1145.188514967,1145.69507229,None,None,down,1.5320955160000267,1145.188514967,None,None,None,z,0.3327079270000013,1146.787917125,None,1147.161173334,None,,79,30,34,,,,,103,32,2022_Sep_08_1409,templeton_exp2A_SD,2020.2.10,37.507892785878504,
,,,,,,,,,,,,,,,,,,,,,,123,0,123,0,,,,,,,,,,,,,,,,,,,,,,,,3.5,3.6,4.1,,,,,,,,,,,,,,,,,,,,,,,,,,,,,,,,,,,123,1127.0088948920002,1,6,0,5,3,7,4,8,1,1,7,1147.734261823,None,1,6,0,5,3,7,4,2,,1151.799423975,None,1151.799423975,None,1151.799423975,None,1151.799423975,None,1151.799423975,None,1151.799423975,None,1151.799423975,None,1151.799423975,None,1151.879395274,1152.385864567,1151.879395274,1152.385864567,1151.879395274,1152.385864567,None,None,left,1.465275045999988,1151.879395274,None,None,None,c,0.3057729229999495,1153.398817936,None,1153.745346619,None,,80,30,34,,,,,103,32,2022_Sep_08_1409,templeton_exp2A_SD,2020.2.10,37.507892785878504,
,,,,,,,,,,,,,,,,,,,,,,124,0,124,0,,,,,,,,,,,,,,,,,,,,,,,,2.9000000000000004,1.6,2.9000000000000004,,,,,,,,,,,,,,,,,,,,,,,,,,,,,,,,,,,124,1133.5913343440002,4,9,1,5,2,7,3,6,0,1,7,1154.318473584,None,4,9,1,5,2,7,3,0,,1157.770411646,None,1157.770411646,None,1157.770411646,None,1157.770411646,None,1157.770411646,None,1157.770411646,None,1157.770411646,None,1157.770411646,None,1156.464319277,1156.970713749,1156.464319277,1156.970713749,1156.464319277,1156.970713749,None,None,left,2.166291321000017,1157.770411646,None,None,None,x,0.3351165649999075,1160.009547467,None,1160.38283389,None,,81,31,35,,,,,103,32,2022_Sep_08_1409,templeton_exp2A_SD,2020.2.10,37.507892785878504,
,,,,,,,,,,,,,,,,,,,,,,125,0,125,0,,,,,,,,,,,,,,,,,,,,,,,,2.9000000000000004,1.6,2.9000000000000004,,,,,,,,,,,,,,,,,,,,,,,,,,,,,,,,,,,125,1140.2298668530002,2,8,3,5,0,9,4,7,0,1,7,1160.95584884,None,2,8,3,5,0,9,4,1,,1164.407975601,None,1164.407975601,None,1164.407975601,None,1164.407975601,None,1164.407975601,None,1164.407975601,None,1164.407975601,None,1164.407975601,None,1163.101818468,1163.608236893,1163.101818468,1163.608236893,1163.101818468,1163.608236893,None,None,down,1.2805759880000096,1164.407975601,None,None,None,z,0.21720038200010094,1165.7674607229999,None,1166.033941468,None,,82,31,36,,,,,103,32,2022_Sep_08_1409,templeton_exp2A_SD,2020.2.10,37.507892785878504,
,,,,,,,,,,,,,,,,,,,,,,126,0,126,0,,,,,,,,,,,,,,,,,,,,,,,,2.9000000000000004,1.6,2.9000000000000004,,,,,,,,,,,,,,,,,,,,,,,,,,,,,,,,,,,126,1145.881012188,2,8,1,5,3,6,4,7,0,0,4,1166.607104739,None,2,8,1,5,3,6,4,7,,1170.059130355,None,1170.059130355,None,1170.059130355,None,1170.059130355,None,1170.059130355,None,1170.059130355,None,1170.059130355,None,1170.059130355,None,1168.752979353,1169.259433994,1168.752979353,1169.259433994,1168.752979353,1169.259433994,None,None,left,1.6774827229999119,1170.059130355,None,None,None,x,0.3128396359998078,1171.791855719,None,1172.138340315,None,,83,31,37,,,,,103,32,2022_Sep_08_1409,templeton_exp2A_SD,2020.2.10,37.507892785878504,
,,,,,,,,,,,,,,,,,,,,,,127,0,127,0,,,,,,,,,,,,,,,,,,,,,,,,2.5,2.6,3.1,,,,,,,,,,,,,,,,,,,,,,,,,,,,,,,,,,,127,1151.9854470270002,3,5,4,7,0,8,1,6,1,1,3,1172.711492843,None,3,5,4,2,0,8,1,6,,1175.763673802,None,1175.763673802,None,1175.763673802,None,1175.763673802,None,1175.763673802,None,1175.763673802,None,1175.763673802,None,1175.763673802,None,1175.870218219,1176.376752321,1175.870218219,1176.376752321,1175.870218219,1176.376752321,None,None,left,1.986405232000152,1175.870218219,None,None,None,x,0.4378308579998702,1177.922825877,None,1178.402636559,None,,84,31,37,,,,,103,32,2022_Sep_08_1409,templeton_exp2A_SD,2020.2.10,37.507892785878504,
,,,,,,,,,,,,,,,,,,,,,,128,0,128,0,,,,,,,,,,,,,,,,,,,,,,,,2.9000000000000004,1.6,2.9000000000000004,,,,,,,,,,,,,,,,,,,,,,,,,,,,,,,,,,,128,1158.248720402,2,9,1,6,0,7,3,5,0,0,5,1178.975781131,None,2,9,1,6,0,7,3,5,,1182.427768981,None,1182.427768981,None,1182.427768981,None,1182.427768981,None,1182.427768981,None,1182.427768981,None,1182.427768981,None,1182.427768981,None,1181.121646228,1181.628118202,1181.121646228,1181.628118202,1181.121646228,1181.628118202,None,None,down,1.2608436079999592,1182.427768981,None,None,None,z,0.33603014899995287,1183.760642957,None,1184.133849429,None,,85,32,38,,,,,103,32,2022_Sep_08_1409,templeton_exp2A_SD,2020.2.10,37.507892785878504,
,,,,,,,,,,,,,,,,,,,,,,129,0,129,0,,,,,,,,,,,,,,,,,,,,,,,,2.9,3.0,3.5,,,,,,,,,,,,,,,,,,,,,,,,,,,,,,,,,,,129,1163.980277222,2,7,0,5,1,9,3,6,1,0,3,1184.706950014,None,2,7,0,5,1,9,3,6,,1188.158935589,None,1188.158935589,None,1188.158935589,None,1188.158935589,None,1188.158935589,None,1188.158935589,None,1188.158935589,None,1188.158935589,None,1188.265598009,1188.771999132,1188.265598009,1188.771999132,1188.265598009,1188.771999132,None,None,left,1.9190584089999447,1188.265598009,None,None,None,c,0.33852509700000155,1190.238149988,None,1190.611328478,None,,86,32,38,,,,,103,32,2022_Sep_08_1409,templeton_exp2A_SD,2020.2.10,37.507892785878504,
,,,,,,,,,,,,,,,,,,,,,,130,0,130,0,,,,,,,,,,,,,,,,,,,,,,,,2.9000000000000004,1.6,2.9000000000000004,,,,,,,,,,,,,,,,,,,,,,,,,,,,,,,,,,,130,1170.457161077,4,5,1,6,2,9,3,7,0,0,7,1191.184486902,None,4,5,1,6,2,9,3,7,,1194.636493167,None,1194.636493167,None,1194.636493167,None,1194.636493167,None,1194.636493167,None,1194.636493167,None,1194.636493167,None,1194.636493167,None,1193.330353396,1193.836763671,1193.330353396,1193.836763671,1193.330353396,1193.836763671,None,None,down,2.0201179939999747,1194.636493167,None,None,None,c,1.5649495750001279,1196.715725202,None,1198.315130548,None,,87,33,39,,,,,103,32,2022_Sep_08_1409,templeton_exp2A_SD,2020.2.10,37.507892785878504,
,,,,,,,,,,,,,,,,,,,,,,131,0,131,0,,,,,,,,,,,,,,,,,,,,,,,,2.9000000000000004,1.6,2.9000000000000004,,,,,,,,,,,,,,,,,,,,,,,,,,,,,,,,,,,131,1178.1622219189999,0,8,1,6,4,5,2,7,0,1,3,1198.888170675,None,0,8,1,3,4,5,2,7,,1202.340267643,None,1202.340267643,None,1202.340267643,None,1202.340267643,None,1202.340267643,None,1202.340267643,None,1202.340267643,None,1202.340267643,None,1201.034015203,1201.54058315,1201.034015203,1201.54058315,1201.034015203,1201.54058315,None,None,left,1.5483640979998654,1202.340267643,None,None,None,z,0.2743013100000553,1203.966324622,None,1204.286114562,None,,88,34,40,,,,,103,32,2022_Sep_08_1409,templeton_exp2A_SD,2020.2.10,37.507892785878504,
,,,,,,,,,,,,,,,,,,,,,,132,0,132,0,,,,,,,,,,,,,,,,,,,,,,,,3.5,3.6,4.1,,,,,,,,,,,,,,,,,,,,,,,,,,,,,,,,,,,132,1184.132369819,1,5,4,9,3,7,0,6,1,1,4,1204.859259535,None,1,5,4,9,2,7,0,6,,1208.897780771,None,1208.897780771,None,1208.897780771,None,1208.897780771,None,1208.897780771,None,1208.897780771,None,1208.897780771,None,1208.897780771,None,1209.004366021,1209.51083514,1209.004366021,1209.51083514,1209.004366021,1209.51083514,None,None,left,1.5962890339999376,1209.004366021,None,None,None,z,0.2955487199999425,1210.657113947,None,1211.003600272,None,,89,34,40,,,,,103,32,2022_Sep_08_1409,templeton_exp2A_SD,2020.2.10,37.507892785878504,
,,,,,,,,,,,,,,,,,,,,,,133,0,133,0,,,,,,,,,,,,,,,,,,,,,,,,2.9000000000000004,1.6,2.9000000000000004,,,,,,,,,,,,,,,,,,,,,,,,,,,,,,,,,,,133,1190.850994422,2,5,3,7,1,8,0,6,0,0,0,1211.576752652,None,2,5,3,7,1,8,0,6,,1215.028748574,None,1215.028748574,None,1215.028748574,None,1215.028748574,None,1215.028748574,None,1215.028748574,None,1215.028748574,None,1215.028748574,None,1213.722580436,1214.229104094,1213.722580436,1214.229104094,1213.722580436,1214.229104094,None,None,down,2.80389745399998,1215.028748574,None,None,None,x,0.6370396439999695,1217.907634075,None,1218.574117445,None,,90,35,41,,,,,103,32,2022_Sep_08_1409,templeton_exp2A_SD,2020.2.10,37.507892785878504,
,,,,,,,,,,,,,,,,,,,,,,134,0,134,0,,,,,,,,,,,,,,,,,,,,,,,,2.9000000000000004,1.6,2.9000000000000004,,,,,,,,,,,,,,,,,,,,,,,,,,,,,,,,,,,134,1198.4202784560002,4,7,1,9,0,5,3,6,0,1,6,1219.147230289,None,4,7,1,9,0,5,2,6,,1222.59926348,None,1222.59926348,None,1222.59926348,None,1222.59926348,None,1222.59926348,None,1222.59926348,None,1222.59926348,None,1222.59926348,None,1221.292978344,1221.799566439,1221.292978344,1221.799566439,1221.292978344,1221.799566439,None,None,left,2.0974178080000456,1222.59926348,None,None,None,x,0.6102565370001685,1224.758442054,None,1225.39819973,None,,91,36,42,,,,,103,32,2022_Sep_08_1409,templeton_exp2A_SD,2020.2.10,37.507892785878504,
,,,,,,,,,,,,,,,,,,,,,,135,0,135,0,,,,,,,,,,,,,,,,,,,,,,,,2.5,2.6,3.1,,,,,,,,,,,,,,,,,,,,,,,,,,,,,,,,,,,135,1206.239804113,1,9,2,7,4,6,3,5,1,1,7,1226.970897196,None,1,9,2,7,4,6,3,0,,1230.022992997,None,1230.022992997,None,1230.022992997,None,1230.022992997,None,1230.022992997,None,1230.022992997,None,1230.022992997,None,1230.022992997,None,1230.129733691,1230.636174572,1230.129733691,1230.636174572,1230.129733691,1230.636174572,None,None,down,1.510920871000053,1230.129733691,None,None,None,x,0.3781648070000756,1231.702494176,None,1232.12890072,None,,92,36,42,,,,,103,32,2022_Sep_08_1409,templeton_exp2A_SD,2020.2.10,37.507892785878504,
,,,,,,,,,,,,,,,,,,,,,,136,0,136,0,,,,,,,,,,,,,,,,,,,,,,,,2.9000000000000004,1.6,2.9000000000000004,,,,,,,,,,,,,,,,,,,,,,,,,,,,,,,,,,,136,1211.976809583,1,9,0,6,4,5,3,8,0,1,4,1232.702133217,None,1,9,0,6,2,5,3,8,,1236.154122165,None,1236.154122165,None,1236.154122165,None,1236.154122165,None,1236.154122165,None,1236.154122165,None,1236.154122165,None,1236.154122165,None,1234.847954824,1235.354387853,1234.847954824,1235.354387853,1234.847954824,1235.354387853,None,None,left,1.6385067050000544,1236.154122165,None,None,None,x,0.2684831149999809,1237.860141256,None,1238.179941564,None,,93,37,43,,,,,103,32,2022_Sep_08_1409,templeton_exp2A_SD,2020.2.10,37.507892785878504,
,,,,,,,,,,,,,,,,,,,,,,137,0,137,0,,,,,,,,,,,,,,,,,,,,,,,,2.9000000000000004,1.6,2.9000000000000004,,,,,,,,,,,,,,,,,,,,,,,,,,,,,,,,,,,137,1218.026691304,4,8,2,6,1,9,0,5,0,1,1,1238.753150896,None,4,3,2,6,1,9,0,5,,1242.205121908,None,1242.205121908,None,1242.205121908,None,1242.205121908,None,1242.205121908,None,1242.205121908,None,1242.205121908,None,1242.205121908,None,1240.89898262,1241.405401808,1240.89898262,1241.405401808,1240.89898262,1241.405401808,None,None,left,1.4755188599999656,1242.205121908,None,None,None,z,0.2974285190000501,1243.751239114,None,1244.097696133,None,,94,38,44,,,,,103,32,2022_Sep_08_1409,templeton_exp2A_SD,2020.2.10,37.507892785878504,
,,,,,,,,,,,,,,,,,,,,,,138,0,138,0,,,,,,,,,,,,,,,,,,,,,,,,2.7,2.8000000000000003,3.3000000000000003,,,,,,,,,,,,,,,,,,,,,,,,,,,,,,,,,,,138,1223.9448380889999,1,8,2,5,4,7,3,6,1,0,0,1244.670823,None,1,8,2,5,4,7,3,6,,1247.936249271,None,1247.936249271,None,1247.936249271,None,1247.936249271,None,1247.936249271,None,1247.936249271,None,1247.936249271,None,1247.936249271,None,1248.016300857,1248.52271529,1248.016300857,1248.52271529,1248.016300857,1248.52271529,None,None,down,1.5603519240000878,1248.016300857,None,None,None,z,0.2303190469999663,1249.64234255,None,1249.908858412,None,,95,38,44,,,,,103,32,2022_Sep_08_1409,templeton_exp2A_SD,2020.2.10,37.507892785878504,
,,,,,,,,,,,,,,,,,,,,,,139,0,139,0,,,,,,,,,,,,,,,,,,,,,,,,2.3000000000000003,2.4000000000000004,2.9000000000000004,,,,,,,,,,,,,,,,,,,,,,,,,,,,,,,,,,,139,1229.755224295,2,5,0,6,1,9,3,7,1,0,6,1250.482025062,None,2,5,0,6,1,9,3,7,,1253.347557068,None,1253.347557068,None,1253.347557068,None,1253.347557068,None,1253.347557068,None,1253.347557068,None,1253.347557068,None,1253.347557068,None,1253.427532988,1253.934055413,1253.427532988,1253.934055413,1253.427532988,1253.934055413,None,None,down,1.0371245329999965,1253.427532988,None,None,None,z,0.2722473579999587,1254.520416583,None,1254.840366333,None,,96,38,44,,,,,103,32,2022_Sep_08_1409,templeton_exp2A_SD,2020.2.10,37.507892785878504,
,,,,,,,,,,,,,,,,,,,,,,140,0,140,0,,,,,,,,,,,,,,,,,,,,,,,,2.9000000000000004,1.6,2.9000000000000004,,,,,,,,,,,,,,,,,,,,,,,,,,,,,,,,,,,140,1234.6869395509998,0,6,2,5,3,8,4,9,0,1,3,1255.413460442,None,0,6,2,1,3,8,4,9,,1258.865516654,None,1258.865516654,None,1258.865516654,None,1258.865516654,None,1258.865516654,None,1258.865516654,None,1258.865516654,None,1258.865516654,None,1257.559349454,1258.0657301649999,1257.559349454,1258.0657301649999,1257.559349454,1258.0657301649999,None,None,left,1.415140084000086,1258.865516654,None,None,None,z,0.5543828350000695,1260.358290522,None,1260.944735608,None,,97,39,45,,,,,103,32,2022_Sep_08_1409,templeton_exp2A_SD,2020.2.10,37.507892785878504,
