trials_2.thisRepN,trials_2.thisTrialN,trials_2.thisN,trials_2.thisIndex,Used_image_1,Used_image_2,Used_image_3,Used_image_4,Used_image_5,Used_image_6,Used_image_7,Used_image_8,Unused_image_1,Unused_image_2,trials.thisRepN,trials.thisTrialN,trials.thisN,trials.thisIndex,trials_4.thisRepN,trials_4.thisTrialN,trials_4.thisN,trials_4.thisIndex,trials_10.thisRepN,trials_10.thisTrialN,trials_10.thisN,trials_10.thisIndex,welcome.started,welcome.stopped,pointer_dot_0.started,pointer_dot_0.stopped,pointer_dot_1.started,pointer_dot_1.stopped,pointer_dot_2.started,pointer_dot_2.stopped,SD_image.started,SD_image.stopped,memDisplayOnTimePractice,mem_image_0_practice,mem_image_1_practice,mem_image_2_practice,mem_image_3_practice,mem_image_4_practice,mem_image_5_practice,mem_image_6_practice,mem_image_7_practice,retention_interval_practice,retro_0_post_1_practice,change_or_no_practice,cue_location_practice,mem_display_to_test_array_duration_s,mem_display_to_cue_duration_s,routine_duration_s,array_image_1f.started,array_image_1f.stopped,array_image_2f.started,array_image_2f.stopped,array_image_3f.started,array_image_3f.stopped,array_image_4f.started,array_image_4f.stopped,array_image_5f.started,array_image_5f.stopped,array_image_6f.started,array_image_6f.stopped,array_image_7f.started,array_image_7f.stopped,array_image_8f.started,array_image_8f.stopped,pointer_dot_0b.started,pointer_dot_0b.stopped,pointer_dot_1b.started,pointer_dot_1b.stopped,pointer_dot_2b.started,pointer_dot_2b.stopped,sd_practice_resp.keys,sd_practice_resp.rt,sd_practice_resp.started,sd_practice_resp.stopped,text_10.started,text_10.stopped,conf_practice_resp.keys,conf_practice_resp.rt,conf_practice_resp.started,conf_practice_resp.stopped,image.started,image.stopped,training_trial_index,memDisplayOnTimeTraining,mem_image_0_training,mem_image_1_training,mem_image_2_training,mem_image_3_training,mem_image_4_training,mem_image_5_training,mem_image_6_training,mem_image_7_training,retro_0_post_1_training,change_or_no_training,cue_location_training,array_image_1l.started,array_image_1l.stopped,test_image_0_training,test_image_1_training,test_image_2_training,test_image_3_training,test_image_4_training,test_image_5_training,test_image_6_training,test_image_7_training,consecutive_correct_retro_short,array_image_1m.started,array_image_1m.stopped,array_image_2m.started,array_image_2m.stopped,array_image_3m.started,array_image_3m.stopped,array_image_4m.started,array_image_4m.stopped,array_image_5m.started,array_image_5m.stopped,array_image_6m.started,array_image_6m.stopped,array_image_7m.started,array_image_7m.stopped,array_image_8m.started,array_image_8m.stopped,pointer_dot_0d.started,pointer_dot_0d.stopped,pointer_dot_1d.started,pointer_dot_1d.stopped,pointer_dot_2d.started,pointer_dot_2d.stopped,reminder_training.started,reminder_training.stopped,sd_training_resp.keys,sd_training_resp.rt,sd_training_resp.started,sd_training_resp.stopped,text_15.started,text_15.stopped,conf_training_resp.keys,conf_training_resp.rt,conf_training_resp.started,conf_training_resp.stopped,text.started,text.stopped,short_interval_training_finished,training_trial_index_long_this_block,correct_retro_long_this_block,retro_trials_long_this_block,long_interval_block_finished,long_block_retro_acc,reached_criterion,run_out_of_trials,participant,mapping,date,expName,psychopyVersion,frameRate,
,,,,,,,,,,,,,,0,0,0,0,,,,,,,,,34.41279394199955,None,825.7929863219997,None,825.7929863219997,None,825.7929863219997,None,851.8497151339998,None,868.7085538109995,2,6,4,9,1,5,0,8,1.6,1,0,3,1.5,1.6,2.1,905.2162232719993,None,905.2162232719993,None,905.2162232719993,None,905.2162232719993,None,905.2162232719993,None,905.2162232719993,None,905.2162232719993,None,905.2162232719993,None,905.3227908559993,905.829281499,905.3227908559993,905.829281499,905.3227908559993,905.829281499,left,1.5070408210003734,905.3227908559993,None,906.8822259949993,None,x,30.587679625999954,906.8822259949993,None,906.8822259949993,None,,,,,,,,,,,,,,,,,,,,,,,,,,,,,,,,,,,,,,,,,,,,,,,,,,,,,,,,,,,,,,,,,,,,,102,23,2022_Sep_13_1400,templeton_exp2A_SD,2020.2.10,75.07379848212564,
,,,,,,,,,,,,,,1,0,1,0,,,,,,,,,,,,,,,,,,,908.1328907810002,2,8,0,6,1,9,3,7,1.6,1,1,6,1.5,1.6,2.1,944.6279630129993,None,944.6279630129993,None,944.6279630129993,None,944.6279630129993,None,944.6279630129993,None,944.6279630129993,None,944.6279630129993,None,944.6279630129993,None,944.7345464919999,945.2409805159996,944.7345464919999,945.2409805159996,944.7345464919999,945.2409805159996,down,1.5753425559996685,944.7345464919999,None,946.347306484,None,z,0.7386206020000827,946.347306484,None,946.347306484,None,,,,,,,,,,,,,,,,,,,,,,,,,,,,,,,,,,,,,,,,,,,,,,,,,,,,,,,,,,,,,,,,,,,,,102,23,2022_Sep_13_1400,templeton_exp2A_SD,2020.2.10,75.07379848212564,
,,,,,,,,,,,,,,2,0,2,0,,,,,,,,,,,,,,,,,,,914.5691863370002,3,6,1,5,2,9,4,8,1.6,1,1,5,1.5,1.6,2.1,951.0788185649999,None,951.0788185649999,None,951.0788185649999,None,951.0788185649999,None,951.0788185649999,None,951.0788185649999,None,951.0788185649999,None,951.0788185649999,None,951.1720884649994,951.6786204549999,951.1720884649994,951.6786204549999,951.1720884649994,951.6786204549999,left,1.2418438220001917,951.1720884649994,None,952.4382815999998,None,x,0.6076793660004114,952.4382815999998,None,952.4382815999998,None,,,,,,,,,,,,,,,,,,,,,,,,,,,,,,,,,,,,,,,,,,,,,,,,,,,,,,,,,,,,,,,,,,,,,102,23,2022_Sep_13_1400,templeton_exp2A_SD,2020.2.10,75.07379848212564,
,,,,,,,,,,,,,,3,0,3,0,,,,,,,,,,,,,,,,,,,920.2332100849999,3,5,4,8,1,6,2,9,1.6,0,1,4,2.9000000000000004,1.6,2.9000000000000004,958.1294312759992,None,958.1294312759992,None,958.1294312759992,None,958.1294312759992,None,958.1294312759992,None,958.1294312759992,None,958.1294312759992,None,958.1294312759992,None,956.8366010089994,957.3431229669995,956.8366010089994,957.3431229669995,956.8366010089994,957.3431229669995,down,1.5404950190004456,958.1294312759992,None,959.6888251009996,None,x,0.8530100199996014,959.6888251009996,None,959.6888251009996,None,,,,,,,,,,,,,,,,,,,,,,,,,,,,,,,,,,,,,,,,,,,,,,,,,,,,,,,,,,,,,,,,,,,,,102,23,2022_Sep_13_1400,templeton_exp2A_SD,2020.2.10,75.07379848212564,
,,,,,,,,,,,,,,4,0,4,0,,,,,,,,,,,,,,,,,,,928.8295699379996,1,5,3,9,2,7,4,6,1.6,0,1,3,2.9000000000000004,1.6,2.9000000000000004,966.7395925129995,None,966.7395925129995,None,966.7395925129995,None,966.7395925129995,None,966.7395925129995,None,966.7395925129995,None,966.7395925129995,None,966.7395925129995,None,965.4334087899997,965.9398169769993,965.4334087899997,965.9398169769993,965.4334087899997,965.9398169769993,down,1.3623171209992506,966.7395925129995,None,968.1257208179995,None,z,0.4482059809997736,968.1257208179995,None,968.1257208179995,None,,,,,,,,,,,,,,,,,,,,,,,,,,,,,,,,,,,,,,,,,,,,,,,,,,,,,,,,,,,,,,,,,,,,,102,23,2022_Sep_13_1400,templeton_exp2A_SD,2020.2.10,75.07379848212564,
,,,,,,,,,,,,,,5,0,5,0,,,,,,,,,,,,,,,,,,,935.6810459529997,2,8,0,6,4,5,3,9,1.6,1,0,0,1.5,1.6,2.1,972.1774735199997,None,972.1774735199997,None,972.1774735199997,None,972.1774735199997,None,972.1774735199997,None,972.1774735199997,None,972.1774735199997,None,972.1774735199997,None,972.284147937,972.7905966619992,972.284147937,972.7905966619992,972.284147937,972.7905966619992,left,1.001779672000339,972.284147937,None,973.3103881549996,None,x,0.7115385269999024,973.3103881549996,None,973.3103881549996,None,,,,,,,,,,,,,,,,,,,,,,,,,,,,,,,,,,,,,,,,,,,,,,,,,,,,,,,,,,,,,,,,,,,,,102,23,2022_Sep_13_1400,templeton_exp2A_SD,2020.2.10,75.07379848212564,
,,,,,,,,,,,,,,6,0,6,0,,,,,,,,,,,,,,,,,,,941.3194601750001,2,6,0,8,1,7,3,5,1.6,0,0,5,2.9000000000000004,1.6,2.9000000000000004,979.2281766979995,None,979.2281766979995,None,979.2281766979995,None,979.2281766979995,None,979.2281766979995,None,979.2281766979995,None,979.2281766979995,None,979.2281766979995,None,977.9219890869999,978.4284855859996,977.9219890869999,978.4284855859996,977.9219890869999,978.4284855859996,down,1.6897513190006066,979.2281766979995,None,980.9342000889992,None,z,0.49569773400071426,980.9342000889992,None,980.9342000889992,None,,,,,,,,,,,,,,,,,,,,,,,,,,,,,,,,,,,,,,,,,,,,,,,,,,,,,,,,,,,,,,,,,,,,,102,23,2022_Sep_13_1400,templeton_exp2A_SD,2020.2.10,75.07379848212564,
,,,,,,,,,,,,,,,,,,,,,,0,0,0,0,,,,,,,,,,,,,,,,,,,,,,,,0.65,0.75,1.25,,,,,,,,,,,,,,,,,,,,,,,,,,,,,,,,,,,0,966.0642485640001,1,5,3,9,4,8,0,6,1,1,6,1000.5134769379993,None,1,5,3,9,4,8,2,6,0,1001.7395623369994,None,1001.7395623369994,None,1001.7395623369994,None,1001.7395623369994,None,1001.7395623369994,None,1001.7395623369994,None,1001.7395623369994,None,1001.7395623369994,None,1001.8329441729993,1002.3393751289996,1001.8329441729993,1002.3393751289996,1001.8329441729993,1002.3393751289996,None,None,down,1.332885766999425,1001.8329441729993,None,None,None,x,0.40284824800073693,1003.219084032,None,1003.6455248049997,None,,,,,,,,,102,23,2022_Sep_13_1400,templeton_exp2A_SD,2020.2.10,75.07379848212564,
,,,,,,,,,,,,,,,,,,,,,,1,0,1,0,,,,,,,,,,,,,,,,,,,,,,,,0.65,0.75,1.25,,,,,,,,,,,,,,,,,,,,,,,,,,,,,,,,,,,1,969.7792689899998,1,5,0,9,3,7,4,8,1,0,3,1004.2187234499997,None,1,5,0,9,3,7,4,8,0,1005.4315813579997,None,1005.4315813579997,None,1005.4315813579997,None,1005.4315813579997,None,1005.4315813579997,None,1005.4315813579997,None,1005.4315813579997,None,1005.4315813579997,None,1005.5380285479996,1006.0446819009994,1005.5380285479996,1006.0446819009994,1005.5380285479996,1006.0446819009994,None,None,down,2.6838934329998665,1005.5380285479996,None,None,None,x,0.2715010850006365,1008.2704263649994,None,1008.5636728939999,None,,,,,,,,,102,23,2022_Sep_13_1400,templeton_exp2A_SD,2020.2.10,75.07379848212564,
,,,,,,,,,,,,,,,,,,,,,,2,0,2,0,,,,,,,,,,,,,,,,,,,,,,,,0.65,0.75,1.25,,,,,,,,,,,,,,,,,,,,,,,,,,,,,,,,,,,2,974.6967354400003,4,5,2,9,3,8,1,7,1,1,5,1009.1368180399995,None,4,5,2,9,3,0,1,7,0,1010.3497214489998,None,1010.3497214489998,None,1010.3497214489998,None,1010.3497214489998,None,1010.3497214489998,None,1010.3497214489998,None,1010.3497214489998,None,1010.3497214489998,None,1010.443061637,1010.9494927559999,1010.443061637,1010.9494927559999,1010.443061637,1010.9494927559999,None,None,left,0.8908733590005795,1010.443061637,None,None,None,z,0.38193224200040277,1011.375997702,None,1011.7757854359998,None,,,,,,,,,102,23,2022_Sep_13_1400,templeton_exp2A_SD,2020.2.10,75.07379848212564,
,,,,,,,,,,,,,,,,,,,,,,3,0,3,0,,,,,,,,,,,,,,,,,,,,,,,,0.65,0.75,1.25,,,,,,,,,,,,,,,,,,,,,,,,,,,,,,,,,,,3,977.9096752120004,3,6,0,8,4,9,1,7,1,1,1,1012.3489876629992,None,3,2,0,8,4,9,1,7,0,1013.5618341359996,None,1013.5618341359996,None,1013.5618341359996,None,1013.5618341359996,None,1013.5618341359996,None,1013.5618341359996,None,1013.5618341359996,None,1013.5618341359996,None,1013.6684773069992,1014.1749214819993,1013.6684773069992,1014.1749214819993,1013.6684773069992,1014.1749214819993,None,None,down,1.2414645150001888,1013.6684773069992,None,None,None,z,0.32467275300041365,1014.961254883,None,1015.3078109439994,None,,,,,,,,,102,23,2022_Sep_13_1400,templeton_exp2A_SD,2020.2.10,75.07379848212564,
,,,,,,,,,,,,,,,,,,,,,,4,0,4,0,,,,,,,,,,,,,,,,,,,,,,,,2.05,0.75,2.05,,,,,,,,,,,,,,,,,,,,,,,,,,,,,,,,,,,4,981.4407396910001,2,5,4,8,0,9,3,7,0,0,1,1015.8809305999994,None,2,5,4,8,0,9,3,7,1,1018.4932913969997,None,1018.4932913969997,None,1018.4932913969997,None,1018.4932913969997,None,1018.4932913969997,None,1018.4932913969997,None,1018.4932913969997,None,1018.4932913969997,None,1017.2004714749992,1017.706873391,1017.2004714749992,1017.706873391,1017.2004714749992,1017.706873391,None,None,left,1.1526350499998443,1018.4932913969997,None,None,None,z,0.2730996749996848,1019.6928403509992,None,1019.9860076389996,None,,,,,,,,,102,23,2022_Sep_13_1400,templeton_exp2A_SD,2020.2.10,75.07379848212564,
,,,,,,,,,,,,,,,,,,,,,,5,0,5,0,,,,,,,,,,,,,,,,,,,,,,,,2.05,0.75,2.05,,,,,,,,,,,,,,,,,,,,,,,,,,,,,,,,,,,5,986.1179045500003,3,7,2,5,4,9,0,6,0,1,1,1020.5591861699995,None,3,1,2,5,4,9,0,6,2,1023.1714739809995,None,1023.1714739809995,None,1023.1714739809995,None,1023.1714739809995,None,1023.1714739809995,None,1023.1714739809995,None,1023.1714739809995,None,1023.1714739809995,None,1021.8653706389996,1022.3717827819992,1021.8653706389996,1022.3717827819992,1021.8653706389996,1022.3717827819992,None,None,down,3.5144559469999876,1023.1714739809995,None,None,None,z,0.28375502599919855,1026.7301741499996,None,1027.0366626619998,None,,,,,,,,,102,23,2022_Sep_13_1400,templeton_exp2A_SD,2020.2.10,75.07379848212564,
,,,,,,,,,,,,,,,,,,,,,,6,0,6,0,,,,,,,,,,,,,,,,,,,,,,,,0.65,0.75,1.25,,,,,,,,,,,,,,,,,,,,,,,,,,,,,,,,,,,6,993.1698440299997,4,7,3,5,1,8,2,6,1,1,1,1027.6097922629997,None,4,0,3,5,1,8,2,6,2,1028.8226754419993,None,1028.8226754419993,None,1028.8226754419993,None,1028.8226754419993,None,1028.8226754419993,None,1028.8226754419993,None,1028.8226754419993,None,1028.8226754419993,None,1028.9293491009994,1029.4358705999994,1028.9293491009994,1029.4358705999994,1028.9293491009994,1029.4358705999994,None,None,down,1.3246238789997733,1028.9293491009994,None,None,None,z,0.21582189400032803,1030.302104974,None,1030.5421024849993,None,,,,,,,,,102,23,2022_Sep_13_1400,templeton_exp2A_SD,2020.2.10,75.07379848212564,
,,,,,,,,,,,,,,,,,,,,,,7,0,7,0,,,,,,,,,,,,,,,,,,,,,,,,0.65,0.75,1.25,,,,,,,,,,,,,,,,,,,,,,,,,,,,,,,,,,,7,996.6744754539995,4,8,3,9,2,5,1,6,1,0,5,1031.1151005639995,None,4,8,3,9,2,5,1,6,2,1032.3280575599993,None,1032.3280575599993,None,1032.3280575599993,None,1032.3280575599993,None,1032.3280575599993,None,1032.3280575599993,None,1032.3280575599993,None,1032.3280575599993,None,1032.4212527729997,1032.9277550359993,1032.4212527729997,1032.9277550359993,1032.4212527729997,1032.9277550359993,None,None,down,1.4326815249996798,1032.4212527729997,None,None,None,x,0.8971749070005899,1033.9007571779994,None,1034.8203888499993,None,,,,,,,,,102,23,2022_Sep_13_1400,templeton_exp2A_SD,2020.2.10,75.07379848212564,
,,,,,,,,,,,,,,,,,,,,,,8,0,8,0,,,,,,,,,,,,,,,,,,,,,,,,2.05,0.75,2.05,,,,,,,,,,,,,,,,,,,,,,,,,,,,,,,,,,,8,1000.9533372289998,0,7,4,9,1,8,3,5,0,0,0,1035.393531367,None,0,7,4,9,1,8,3,5,3,1038.0057909889993,None,1038.0057909889993,None,1038.0057909889993,None,1038.0057909889993,None,1038.0057909889993,None,1038.0057909889993,None,1038.0057909889993,None,1038.0057909889993,None,1036.7130780499992,1037.2195142839992,1036.7130780499992,1037.2195142839992,1036.7130780499992,1037.2195142839992,None,None,left,1.9681225710000945,1038.0057909889993,None,None,None,x,0.2994245339996269,1040.0185173129994,None,1040.338337188,None,,,,,,,,,102,23,2022_Sep_13_1400,templeton_exp2A_SD,2020.2.10,75.07379848212564,
,,,,,,,,,,,,,,,,,,,,,,9,0,9,0,,,,,,,,,,,,,,,,,,,,,,,,2.05,0.75,2.05,,,,,,,,,,,,,,,,,,,,,,,,,,,,,,,,,,,9,1006.4712166339996,1,5,0,9,2,8,3,6,0,1,0,1040.9114462859998,None,4,5,0,9,2,8,3,6,4,1043.52380894,None,1043.52380894,None,1043.52380894,None,1043.52380894,None,1043.52380894,None,1043.52380894,None,1043.52380894,None,1043.52380894,None,1042.2176372149997,1042.7241856699993,1042.2176372149997,1042.7241856699993,1042.2176372149997,1042.7241856699993,None,None,down,0.850070432999928,1043.52380894,None,None,None,z,0.3171190970006137,1044.4168225699996,None,1044.7499500429994,None,,,,,,,,,102,23,2022_Sep_13_1400,templeton_exp2A_SD,2020.2.10,75.07379848212564,
,,,,,,,,,,,,,,,,,,,,,,10,0,10,0,,,,,,,,,,,,,,,,,,,,,,,,2.05,0.75,2.05,,,,,,,,,,,,,,,,,,,,,,,,,,,,,,,,,,,10,1010.8833865340002,2,6,1,9,3,7,0,8,0,0,3,1045.323107491,None,2,6,1,9,3,7,0,8,0,1047.9354663239992,None,1047.9354663239992,None,1047.9354663239992,None,1047.9354663239992,None,1047.9354663239992,None,1047.9354663239992,None,1047.9354663239992,None,1047.9354663239992,None,1046.6426077839997,1047.1491054089993,1046.6426077839997,1047.1491054089993,1046.6426077839997,1047.1491054089993,None,None,down,0.8784428469998602,1047.9354663239992,None,None,None,x,0.33484380500067346,1048.8550955499995,None,1049.2148933279996,None,,,,,,,,,102,23,2022_Sep_13_1400,templeton_exp2A_SD,2020.2.10,75.07379848212564,
,,,,,,,,,,,,,,,,,,,,,,11,0,11,0,,,,,,,,,,,,,,,,,,,,,,,,0.65,0.75,1.25,,,,,,,,,,,,,,,,,,,,,,,,,,,,,,,,,,,11,1015.348268789,1,6,0,9,2,8,4,7,1,0,5,1049.7881533969994,None,1,6,0,9,2,8,4,7,0,1051.0010078809992,None,1051.0010078809992,None,1051.0010078809992,None,1051.0010078809992,None,1051.0010078809992,None,1051.0010078809992,None,1051.0010078809992,None,1051.0010078809992,None,1051.0942431269996,1051.6007568079995,1051.0942431269996,1051.6007568079995,1051.0942431269996,1051.6007568079995,None,None,left,1.1356441869993432,1051.0942431269996,None,None,None,x,0.26139848099956,1052.2805273889999,None,1052.56039607,None,,,,,,,,,102,23,2022_Sep_13_1400,templeton_exp2A_SD,2020.2.10,75.07379848212564,
,,,,,,,,,,,,,,,,,,,,,,12,0,12,0,,,,,,,,,,,,,,,,,,,,,,,,0.65,0.75,1.25,,,,,,,,,,,,,,,,,,,,,,,,,,,,,,,,,,,12,1018.6936781029999,1,6,2,8,4,7,0,5,1,1,0,1053.1334684239991,None,3,6,2,8,4,7,0,5,0,1054.34637974,None,1054.34637974,None,1054.34637974,None,1054.34637974,None,1054.34637974,None,1054.34637974,None,1054.34637974,None,1054.34637974,None,1054.4529873299998,1054.9594743299995,1054.4529873299998,1054.9594743299995,1054.4529873299998,1054.9594743299995,None,None,down,1.1689494849997573,1054.4529873299998,None,None,None,z,0.26801696900020033,1055.6659085209994,None,1055.959129031,None,,,,,,,,,102,23,2022_Sep_13_1400,templeton_exp2A_SD,2020.2.10,75.07379848212564,
,,,,,,,,,,,,,,,,,,,,,,13,0,13,0,,,,,,,,,,,,,,,,,,,,,,,,2.05,0.75,2.05,,,,,,,,,,,,,,,,,,,,,,,,,,,,,,,,,,,13,1022.09230716,4,8,3,6,0,7,1,9,0,1,6,1056.5322391309992,None,4,8,3,6,0,7,2,9,1,1059.1445628149995,None,1059.1445628149995,None,1059.1445628149995,None,1059.1445628149995,None,1059.1445628149995,None,1059.1445628149995,None,1059.1445628149995,None,1059.1445628149995,None,1057.8383624959997,1058.3448594459996,1057.8383624959997,1058.3448594459996,1057.8383624959997,1058.3448594459996,None,None,down,1.0053514490000452,1059.1445628149995,None,None,None,z,0.31242900699999154,1060.1975098639996,None,1060.5307184619996,None,,,,,,,,,102,23,2022_Sep_13_1400,templeton_exp2A_SD,2020.2.10,75.07379848212564,
,,,,,,,,,,,,,,,,,,,,,,14,0,14,0,,,,,,,,,,,,,,,,,,,,,,,,2.05,0.75,2.05,,,,,,,,,,,,,,,,,,,,,,,,,,,,,,,,,,,14,1026.6641287519997,0,8,3,5,1,6,4,7,0,1,1,1061.1037655289992,None,0,2,3,5,1,6,4,7,2,1063.7161672019993,None,1063.7161672019993,None,1063.7161672019993,None,1063.7161672019993,None,1063.7161672019993,None,1063.7161672019993,None,1063.7161672019993,None,1063.7161672019993,None,1062.4099470789997,1062.9164680429994,1062.4099470789997,1062.9164680429994,1062.4099470789997,1062.9164680429994,None,None,down,0.8177422029993977,1063.7161672019993,None,None,None,x,0.27947992099961994,1064.582448532,None,1064.8757250009994,None,,,,,,,,,102,23,2022_Sep_13_1400,templeton_exp2A_SD,2020.2.10,75.07379848212564,
,,,,,,,,,,,,,,,,,,,,,,15,0,15,0,,,,,,,,,,,,,,,,,,,,,,,,0.65,0.75,1.25,,,,,,,,,,,,,,,,,,,,,,,,,,,,,,,,,,,15,1035.3499927679995,1,6,4,5,0,7,3,9,1,1,5,1069.7938484159995,None,1,6,4,5,0,2,3,9,2,1071.0066383699996,None,1071.0066383699996,None,1071.0066383699996,None,1071.0066383699996,None,1071.0066383699996,None,1071.0066383699996,None,1071.0066383699996,None,1071.0066383699996,None,1071.1000458129993,1071.606411148,1071.1000458129993,1071.606411148,1071.1000458129993,1071.606411148,None,None,down,0.8898394019997795,1071.1000458129993,None,None,None,z,0.23692158900030336,1072.0330189219994,None,1072.2861540069998,None,,,,,,,,,102,23,2022_Sep_13_1400,templeton_exp2A_SD,2020.2.10,75.07379848212564,
,,,,,,,,,,,,,,,,,,,,,,16,0,16,0,,,,,,,,,,,,,,,,,,,,,,,,2.05,0.75,2.05,,,,,,,,,,,,,,,,,,,,,,,,,,,,,,,,,,,16,1038.419463268,4,5,3,7,2,8,0,9,0,0,3,1072.8593651869996,None,4,5,3,7,2,8,0,9,3,1075.4717100079997,None,1075.4717100079997,None,1075.4717100079997,None,1075.4717100079997,None,1075.4717100079997,None,1075.4717100079997,None,1075.4717100079997,None,1075.4717100079997,None,1074.178856818,1074.6853586709994,1074.178856818,1074.6853586709994,1074.178856818,1074.6853586709994,None,None,left,1.0302573600001779,1075.4717100079997,None,None,None,z,0.7827539009995235,1076.551188427,None,1077.3509395429992,None,,,,,,,,,102,23,2022_Sep_13_1400,templeton_exp2A_SD,2020.2.10,75.07379848212564,
,,,,,,,,,,,,,,,,,,,,,,17,0,17,0,,,,,,,,,,,,,,,,,,,,,,,,2.05,0.75,2.05,,,,,,,,,,,,,,,,,,,,,,,,,,,,,,,,,,,17,1043.484688214,1,8,2,9,3,6,0,7,0,1,1,1077.924070442,None,1,4,2,9,3,6,0,7,0,1080.5364112549996,None,1080.5364112549996,None,1080.5364112549996,None,1080.5364112549996,None,1080.5364112549996,None,1080.5364112549996,None,1080.5364112549996,None,1080.5364112549996,None,1079.2302929769994,1079.7366850909993,1079.2302929769994,1079.7366850909993,1079.2302929769994,1079.7366850909993,None,None,left,2.2615153480001027,1080.5364112549996,None,None,None,x,0.31569087600018975,1082.8422414359993,None,1083.1754279699999,None,,,,,,,,,102,23,2022_Sep_13_1400,templeton_exp2A_SD,2020.2.10,75.07379848212564,
,,,,,,,,,,,,,,,,,,,,,,18,0,18,0,,,,,,,,,,,,,,,,,,,,,,,,2.05,0.75,2.05,,,,,,,,,,,,,,,,,,,,,,,,,,,,,,,,,,,18,1049.3085703819997,3,5,0,8,2,6,4,7,0,0,5,1083.7485176589998,None,3,5,0,8,2,6,4,7,1,1086.3609169029996,None,1086.3609169029996,None,1086.3609169029996,None,1086.3609169029996,None,1086.3609169029996,None,1086.3609169029996,None,1086.3609169029996,None,1086.3609169029996,None,1085.05463977,1085.5612377979996,1085.05463977,1085.5612377979996,1085.05463977,1085.5612377979996,None,None,left,2.004994540999178,1086.3609169029996,None,None,None,x,0.2324780049993933,1088.4134665499996,None,1088.6666547309997,None,,,,,,,,,102,23,2022_Sep_13_1400,templeton_exp2A_SD,2020.2.10,75.07379848212564,
,,,,,,,,,,,,,,,,,,,,,,19,0,19,0,,,,,,,,,,,,,,,,,,,,,,,,0.65,0.75,1.25,,,,,,,,,,,,,,,,,,,,,,,,,,,,,,,,,,,19,1054.8008029920002,2,5,1,6,0,7,3,8,1,1,3,1089.2398718189997,None,2,5,1,4,0,7,3,8,1,1090.4527145929997,None,1090.4527145929997,None,1090.4527145929997,None,1090.4527145929997,None,1090.4527145929997,None,1090.4527145929997,None,1090.4527145929997,None,1090.4527145929997,None,1090.559348498,1091.0658062489993,1090.559348498,1091.0658062489993,1090.559348498,1091.0658062489993,None,None,left,1.110573938000016,1090.559348498,None,None,None,x,0.21502234499985207,1091.7188761729994,None,1091.9587321419995,None,,,,,,,,,102,23,2022_Sep_13_1400,templeton_exp2A_SD,2020.2.10,75.07379848212564,
,,,,,,,,,,,,,,,,,,,,,,20,0,20,0,,,,,,,,,,,,,,,,,,,,,,,,2.05,0.75,2.05,,,,,,,,,,,,,,,,,,,,,,,,,,,,,,,,,,,20,1058.092011195,3,6,4,7,1,8,2,9,0,1,7,1092.5319233189994,None,3,6,4,7,1,8,2,0,2,1095.1443192869992,None,1095.1443192869992,None,1095.1443192869992,None,1095.1443192869992,None,1095.1443192869992,None,1095.1443192869992,None,1095.1443192869992,None,1095.1443192869992,None,1093.8514071089994,1094.3578231149995,1093.8514071089994,1094.3578231149995,1093.8514071089994,1094.3578231149995,None,None,down,0.6535019399998419,1095.1443192869992,None,None,None,z,0.29930299400075455,1095.850635883,None,1096.170546927,None,,,,,,,,,102,23,2022_Sep_13_1400,templeton_exp2A_SD,2020.2.10,75.07379848212564,
,,,,,,,,,,,,,,,,,,,,,,21,0,21,0,,,,,,,,,,,,,,,,,,,,,,,,2.05,0.75,2.05,,,,,,,,,,,,,,,,,,,,,,,,,,,,,,,,,,,21,1062.303159555,1,9,0,6,4,5,3,7,0,1,1,1096.7436430849993,None,1,2,0,6,4,5,3,7,3,1099.3558897019993,None,1099.3558897019993,None,1099.3558897019993,None,1099.3558897019993,None,1099.3558897019993,None,1099.3558897019993,None,1099.3558897019993,None,1099.3558897019993,None,1098.0498293269993,1098.5562924709993,1098.0498293269993,1098.5562924709993,1098.0498293269993,1098.5562924709993,None,None,down,0.6659934509998493,1099.3558897019993,None,None,None,z,0.25553526699968643,1100.0623925569998,None,1100.342351935,None,,,,,,,,,102,23,2022_Sep_13_1400,templeton_exp2A_SD,2020.2.10,75.07379848212564,
,,,,,,,,,,,,,,,,,,,,,,22,0,22,0,,,,,,,,,,,,,,,,,,,,,,,,2.05,0.75,2.05,,,,,,,,,,,,,,,,,,,,,,,,,,,,,,,,,,,22,1066.4756315109998,2,8,1,6,4,7,3,5,0,1,7,1100.9153562699994,None,2,8,1,6,4,7,3,0,4,1103.5277173309996,None,1103.5277173309996,None,1103.5277173309996,None,1103.5277173309996,None,1103.5277173309996,None,1103.5277173309996,None,1103.5277173309996,None,1103.5277173309996,None,1102.2349295099993,1102.741350362,1102.2349295099993,1102.741350362,1102.2349295099993,1102.741350362,None,None,down,0.6862065159994017,1103.5277173309996,None,None,None,z,0.22521482600041054,1104.2607586999993,None,1104.5006830799994,None,,,,,,,,,102,23,2022_Sep_13_1400,templeton_exp2A_SD,2020.2.10,75.07379848212564,
,,,,,,,,,,,,,,,,,,,,,,23,0,23,0,,,,,,,,,,,,,,,,,,,,,,,,0.65,0.75,1.25,,,,,,,,,,,,,,,,,,,,,,,,,,,,,,,,,,,23,1070.63302672,2,9,4,5,0,6,1,7,1,0,0,1105.0738587819997,None,2,9,4,5,0,6,1,7,4,1106.2865876709993,None,1106.2865876709993,None,1106.2865876709993,None,1106.2865876709993,None,1106.2865876709993,None,1106.2865876709993,None,1106.2865876709993,None,1106.2865876709993,None,1106.3799969879992,1106.8863532529995,1106.3799969879992,1106.8863532529995,1106.3799969879992,1106.8863532529995,None,None,left,1.209928416999901,1106.3799969879992,None,None,None,z,0.2450690770001529,1107.6328624379994,None,1107.899366349,None,,,,,,,,,102,23,2022_Sep_13_1400,templeton_exp2A_SD,2020.2.10,75.07379848212564,
,,,,,,,,,,,,,,,,,,,,,,24,0,24,0,,,,,,,,,,,,,,,,,,,,,,,,0.65,0.75,1.25,,,,,,,,,,,,,,,,,,,,,,,,,,,,,,,,,,,24,1074.0324250860003,2,7,4,9,3,5,0,8,1,0,5,1108.4725535279995,None,2,7,4,9,3,5,0,8,4,1109.68542592,None,1109.68542592,None,1109.68542592,None,1109.68542592,None,1109.68542592,None,1109.68542592,None,1109.68542592,None,1109.68542592,None,1109.7787084499996,1110.2851704099994,1109.7787084499996,1110.2851704099994,1109.7787084499996,1110.2851704099994,None,None,left,0.7232142490001934,1109.7787084499996,None,None,None,z,0.26213411500066286,1110.5517861789995,None,1110.8316583869992,None,,,,,,,,,102,23,2022_Sep_13_1400,templeton_exp2A_SD,2020.2.10,75.07379848212564,
,,,,,,,,,,,,,,,,,,,,,,25,0,25,0,,,,,,,,,,,,,,,,,,,,,,,,2.05,0.75,2.05,,,,,,,,,,,,,,,,,,,,,,,,,,,,,,,,,,,25,1076.9652974629998,1,7,0,6,2,5,3,8,0,1,4,1111.4047565739993,None,1,7,0,6,4,5,3,8,5,1114.0171281009998,None,1114.0171281009998,None,1114.0171281009998,None,1114.0171281009998,None,1114.0171281009998,None,1114.0171281009998,None,1114.0171281009998,None,1114.0171281009998,None,1112.7242273889997,1113.230675492,1112.7242273889997,1113.230675492,1112.7242273889997,1113.230675492,None,None,down,1.2687042669995208,1114.0171281009998,None,None,None,z,0.20540077999976347,1115.3365278359997,None,1115.5630872859992,None,,,,,,,,,102,23,2022_Sep_13_1400,templeton_exp2A_SD,2020.2.10,75.07379848212564,
,,,,,,,,,,,,,,,,,,,,,,26,0,26,0,,,,,,,,,,,,,,,,,,,,,,,,2.05,0.75,2.05,,,,,,,,,,,,,,,,,,,,,,,,,,,,,,,,,,,26,1081.6966886949995,0,7,2,6,3,9,4,8,0,0,3,1116.1363173769996,None,0,7,2,6,3,9,4,8,6,1118.7486467829995,None,1118.7486467829995,None,1118.7486467829995,None,1118.7486467829995,None,1118.7486467829995,None,1118.7486467829995,None,1118.7486467829995,None,1118.7486467829995,None,1117.4425417529992,1117.9489418129997,1117.4425417529992,1117.9489418129997,1117.4425417529992,1117.9489418129997,None,None,left,1.673279215000548,1118.7486467829995,None,None,None,z,0.2579310090004583,1120.4679974829996,None,1120.7478317239993,None,,,,,,,,,102,23,2022_Sep_13_1400,templeton_exp2A_SD,2020.2.10,75.07379848212564,
,,,,,,,,,,,,,,,,,,,,,,27,0,27,0,,,,,,,,,,,,,,,,,,,,,,,,2.05,0.75,2.05,,,,,,,,,,,,,,,,,,,,,,,,,,,,,,,,,,,27,1086.8809419899999,3,5,2,8,4,7,0,6,0,1,7,1121.3208741469998,None,3,5,2,8,4,7,0,1,7,1123.9333570529998,None,1123.9333570529998,None,1123.9333570529998,None,1123.9333570529998,None,1123.9333570529998,None,1123.9333570529998,None,1123.9333570529998,None,1123.9333570529998,None,1122.6404946459998,1123.1469685779994,1122.6404946459998,1123.1469685779994,1122.6404946459998,1123.1469685779994,None,None,down,1.1045679670005484,1123.9333570529998,None,None,None,z,0.2623041810002178,1125.0795836839998,None,1125.3594129799994,None,,,,,,,,,102,23,2022_Sep_13_1400,templeton_exp2A_SD,2020.2.10,75.07379848212564,
,,,,,,,,,,,,,,,,,,,,,,28,0,28,0,,,,,,,,,,,,,,,,,,,,,,,,0.65,0.75,1.25,,,,,,,,,,,,,,,,,,,,,,,,,,,,,,,,,,,28,1091.4932602119998,4,9,3,8,0,7,1,6,1,1,3,1125.9326031599994,None,4,9,3,2,0,7,1,6,7,1127.1454609139992,None,1127.1454609139992,None,1127.1454609139992,None,1127.1454609139992,None,1127.1454609139992,None,1127.1454609139992,None,1127.1454609139992,None,1127.1454609139992,None,1127.2387500599998,1127.7452396939998,1127.2387500599998,1127.7452396939998,1127.2387500599998,1127.7452396939998,None,None,left,2.223169434999363,1127.2387500599998,None,None,None,x,0.2694034599999213,1129.504523701,None,1129.797747054,None,,,,,,,,,102,23,2022_Sep_13_1400,templeton_exp2A_SD,2020.2.10,75.07379848212564,
,,,,,,,,,,,,,,,,,,,,,,29,0,29,0,,,,,,,,,,,,,,,,,,,,,,,,2.05,0.75,2.05,,,,,,,,,,,,,,,,,,,,,,,,,,,,,,,,,,,29,1095.9309798909999,1,5,4,9,2,6,0,8,0,1,5,1130.3708202869993,None,1,5,4,9,2,3,0,8,8,1132.9832370539998,None,1132.9832370539998,None,1132.9832370539998,None,1132.9832370539998,None,1132.9832370539998,None,1132.9832370539998,None,1132.9832370539998,None,1132.9832370539998,None,1131.690397503,1132.1968860459992,1131.690397503,1132.1968860459992,1131.690397503,1132.1968860459992,None,None,down,0.8546869760002664,1132.9832370539998,None,None,None,z,0.2683442900006412,1133.8895551099995,None,1134.1827071129992,None,1,,,,,,,,102,23,2022_Sep_13_1400,templeton_exp2A_SD,2020.2.10,75.07379848212564,
,,,,,,,,,,,,,,,,,,,,,,30,0,30,0,,,,,,,,,,,,,,,,,,,,,,,,2.9000000000000004,1.6,2.9000000000000004,,,,,,,,,,,,,,,,,,,,,,,,,,,,,,,,,,,30,1101.565013886,4,7,0,5,1,9,2,8,0,1,3,1136.0087725919993,None,4,7,0,3,1,9,2,8,,1139.4741272599995,None,1139.4741272599995,None,1139.4741272599995,None,1139.4741272599995,None,1139.4741272599995,None,1139.4741272599995,None,1139.4741272599995,None,1139.4741272599995,None,1138.1679619849992,1138.674425147,1138.1679619849992,1138.674425147,1138.1679619849992,1138.674425147,None,None,down,0.9077564400004121,1139.4741272599995,None,None,None,z,0.27617857699988235,1140.433746447,None,1140.7269292639994,None,,0,1,1,,,,,102,23,2022_Sep_13_1400,templeton_exp2A_SD,2020.2.10,75.07379848212564,
,,,,,,,,,,,,,,,,,,,,,,31,0,31,0,,,,,,,,,,,,,,,,,,,,,,,,2.9000000000000004,1.6,2.9000000000000004,,,,,,,,,,,,,,,,,,,,,,,,,,,,,,,,,,,31,1106.8604084959998,4,9,1,7,2,5,3,8,0,1,4,1141.3001156259998,None,4,9,1,7,0,5,3,8,,1144.7654617409999,None,1144.7654617409999,None,1144.7654617409999,None,1144.7654617409999,None,1144.7654617409999,None,1144.7654617409999,None,1144.7654617409999,None,1144.7654617409999,None,1143.4592034869993,1143.965765905,1143.4592034869993,1143.965765905,1143.4592034869993,1143.965765905,None,None,down,1.0964495360003639,1144.7654617409999,None,None,None,x,0.2542589590002535,1145.9116412739995,None,1146.191531251,None,,1,2,2,,,,,102,23,2022_Sep_13_1400,templeton_exp2A_SD,2020.2.10,75.07379848212564,
,,,,,,,,,,,,,,,,,,,,,,32,0,32,0,,,,,,,,,,,,,,,,,,,,,,,,2.3000000000000003,2.4000000000000004,2.9000000000000004,,,,,,,,,,,,,,,,,,,,,,,,,,,,,,,,,,,32,1112.325132856,4,8,2,6,0,5,3,9,1,1,1,1146.7779892379995,None,4,1,2,6,0,5,3,9,,1149.6435669379998,None,1149.6435669379998,None,1149.6435669379998,None,1149.6435669379998,None,1149.6435669379998,None,1149.6435669379998,None,1149.6435669379998,None,1149.6435669379998,None,1149.7369388439993,1150.2434046179997,1149.7369388439993,1150.2434046179997,1149.7369388439993,1150.2434046179997,None,None,down,1.5409974849999344,1149.7369388439993,None,None,None,x,0.25901572100065096,1151.322914069,None,1151.6028347149995,None,,2,2,2,,,,,102,23,2022_Sep_13_1400,templeton_exp2A_SD,2020.2.10,75.07379848212564,
,,,,,,,,,,,,,,,,,,,,,,33,0,33,0,,,,,,,,,,,,,,,,,,,,,,,,3.1,3.2,3.7,,,,,,,,,,,,,,,,,,,,,,,,,,,,,,,,,,,33,1117.7367647629999,1,6,0,8,2,7,4,9,1,0,3,1152.1760043539998,None,1,6,0,8,2,7,4,9,,1155.8412537619997,None,1155.8412537619997,None,1155.8412537619997,None,1155.8412537619997,None,1155.8412537619997,None,1155.8412537619997,None,1155.8412537619997,None,1155.8412537619997,None,1155.934497239,1156.4410922059997,1155.934497239,1156.4410922059997,1155.934497239,1156.4410922059997,None,None,down,1.7993620269999155,1155.934497239,None,None,None,x,0.2560056110005462,1157.7739235479994,None,1158.0536653089994,None,,3,2,2,,,,,102,23,2022_Sep_13_1400,templeton_exp2A_SD,2020.2.10,75.07379848212564,
,,,,,,,,,,,,,,,,,,,,,,34,0,34,0,,,,,,,,,,,,,,,,,,,,,,,,1.7,1.8,2.3,,,,,,,,,,,,,,,,,,,,,,,,,,,,,,,,,,,34,1124.1872215459998,2,8,3,9,4,7,1,6,1,0,5,1158.6268294819993,None,2,8,3,9,4,7,1,6,,1160.8927244279994,None,1160.8927244279994,None,1160.8927244279994,None,1160.8927244279994,None,1160.8927244279994,None,1160.8927244279994,None,1160.8927244279994,None,1160.8927244279994,None,1160.9859553839997,1161.4924624619998,1160.9859553839997,1161.4924624619998,1160.9859553839997,1161.4924624619998,None,None,left,0.9959611880003649,1160.9859553839997,None,None,None,z,0.25244983799984766,1162.0255161299992,None,1162.292098043,None,,4,2,2,,,,,102,23,2022_Sep_13_1400,templeton_exp2A_SD,2020.2.10,75.07379848212564,
,,,,,,,,,,,,,,,,,,,,,,35,0,35,0,,,,,,,,,,,,,,,,,,,,,,,,3.1,3.2,3.7,,,,,,,,,,,,,,,,,,,,,,,,,,,,,,,,,,,35,1128.4256951859998,2,8,3,6,0,5,4,7,1,1,1,1162.8652816349995,None,2,1,3,6,0,5,4,7,,1166.5305535449997,None,1166.5305535449997,None,1166.5305535449997,None,1166.5305535449997,None,1166.5305535449997,None,1166.5305535449997,None,1166.5305535449997,None,1166.5305535449997,None,1166.6238302149995,1167.1303052479998,1166.6238302149995,1167.1303052479998,1166.6238302149995,1167.1303052479998,None,None,down,1.4300940610000907,1166.6238302149995,None,None,None,z,0.20675359100005153,1168.1031850909994,None,1168.3297895399992,None,,5,2,2,,,,,102,23,2022_Sep_13_1400,templeton_exp2A_SD,2020.2.10,75.07379848212564,
,,,,,,,,,,,,,,,,,,,,,,36,0,36,0,,,,,,,,,,,,,,,,,,,,,,,,2.9000000000000004,1.6,2.9000000000000004,,,,,,,,,,,,,,,,,,,,,,,,,,,,,,,,,,,36,1134.4629877369998,4,5,0,8,2,9,1,6,0,0,0,1168.9028539849996,None,4,5,0,8,2,9,1,6,,1172.3683153009997,None,1172.3683153009997,None,1172.3683153009997,None,1172.3683153009997,None,1172.3683153009997,None,1172.3683153009997,None,1172.3683153009997,None,1172.3683153009997,None,1171.0621583549992,1171.5686026439998,1171.0621583549992,1171.5686026439998,1171.0621583549992,1171.5686026439998,None,None,left,1.413505417000124,1172.3683153009997,None,None,None,z,0.22747017500023503,1173.8344018079997,None,1174.0876675329991,None,,6,3,3,,,,,102,23,2022_Sep_13_1400,templeton_exp2A_SD,2020.2.10,75.07379848212564,
,,,,,,,,,,,,,,,,,,,,,,37,0,37,0,,,,,,,,,,,,,,,,,,,,,,,,3.3000000000000003,3.4000000000000004,3.9000000000000004,,,,,,,,,,,,,,,,,,,,,,,,,,,,,,,,,,,37,1140.2202733550002,4,5,1,7,2,6,0,9,1,0,2,1174.6607518379997,None,4,5,1,7,2,6,0,9,,1178.5126578549998,None,1178.5126578549998,None,1178.5126578549998,None,1178.5126578549998,None,1178.5126578549998,None,1178.5126578549998,None,1178.5126578549998,None,1178.5126578549998,None,1178.6192506729994,1179.1257483539994,1178.6192506729994,1179.1257483539994,1178.6192506729994,1179.1257483539994,None,None,left,0.8986735650005357,1178.6192506729994,None,None,None,z,0.2563196519995472,1179.565608168,None,1179.8454565749998,None,,7,3,3,,,,,102,23,2022_Sep_13_1400,templeton_exp2A_SD,2020.2.10,75.07379848212564,
,,,,,,,,,,,,,,,,,,,,,,38,0,38,0,,,,,,,,,,,,,,,,,,,,,,,,1.7,1.8,2.3,,,,,,,,,,,,,,,,,,,,,,,,,,,,,,,,,,,38,1145.9789380679995,0,7,1,9,3,6,4,8,1,0,2,1180.4185700969992,None,0,7,1,9,3,6,4,8,,1182.6844588079994,None,1182.6844588079994,None,1182.6844588079994,None,1182.6844588079994,None,1182.6844588079994,None,1182.6844588079994,None,1182.6844588079994,None,1182.6844588079994,None,1182.7777295879996,1183.2841847909995,1182.7777295879996,1183.2841847909995,1182.7777295879996,1183.2841847909995,None,None,left,0.9562020319999647,1182.7777295879996,None,None,None,z,0.2525777359996937,1183.7773403759993,None,1184.0438492189996,None,,8,3,3,,,,,102,23,2022_Sep_13_1400,templeton_exp2A_SD,2020.2.10,75.07379848212564,
,,,,,,,,,,,,,,,,,,,,,,39,0,39,0,,,,,,,,,,,,,,,,,,,,,,,,1.7,1.8,2.3,,,,,,,,,,,,,,,,,,,,,,,,,,,,,,,,,,,39,1150.1772895699996,3,6,4,7,0,9,1,8,1,1,2,1184.6169830939998,None,3,6,2,7,0,9,1,8,,1186.8827996269993,None,1186.8827996269993,None,1186.8827996269993,None,1186.8827996269993,None,1186.8827996269993,None,1186.8827996269993,None,1186.8827996269993,None,1186.8827996269993,None,1186.9761769029992,1187.4826136269994,1186.9761769029992,1187.4826136269994,1186.9761769029992,1187.4826136269994,None,None,down,1.4377581290000307,1186.9761769029992,None,None,None,z,0.2303677500003687,1188.4555635939996,None,1188.7087470439992,None,,9,3,3,,,,,102,23,2022_Sep_13_1400,templeton_exp2A_SD,2020.2.10,75.07379848212564,
,,,,,,,,,,,,,,,,,,,,,,40,0,40,0,,,,,,,,,,,,,,,,,,,,,,,,2.9000000000000004,1.6,2.9000000000000004,,,,,,,,,,,,,,,,,,,,,,,,,,,,,,,,,,,40,1154.8419153590003,4,8,0,9,1,5,2,7,0,1,7,1189.2819341919994,None,4,8,0,9,1,5,2,3,,1192.7472655689999,None,1192.7472655689999,None,1192.7472655689999,None,1192.7472655689999,None,1192.7472655689999,None,1192.7472655689999,None,1192.7472655689999,None,1192.7472655689999,None,1191.441005021,1191.9475718629992,1191.441005021,1191.9475718629992,1191.441005021,1191.9475718629992,None,None,left,1.0665568630001871,1192.7472655689999,None,None,None,x,0.21109820699984994,1193.8668296279993,None,1194.093374817,None,,10,3,4,,,,,102,23,2022_Sep_13_1400,templeton_exp2A_SD,2020.2.10,75.07379848212564,
,,,,,,,,,,,,,,,,,,,,,,41,0,41,0,,,,,,,,,,,,,,,,,,,,,,,,3.1,3.2,3.7,,,,,,,,,,,,,,,,,,,,,,,,,,,,,,,,,,,41,1160.2267297930002,2,7,4,8,0,5,1,6,1,0,0,1194.666574983,None,2,7,4,8,0,5,1,6,,1198.3318365589994,None,1198.3318365589994,None,1198.3318365589994,None,1198.3318365589994,None,1198.3318365589994,None,1198.3318365589994,None,1198.3318365589994,None,1198.3318365589994,None,1198.4251283759995,1198.9315982549997,1198.4251283759995,1198.9315982549997,1198.4251283759995,1198.9315982549997,None,None,down,1.4047973070000808,1198.4251283759995,None,None,None,x,0.21602513100060605,1199.8779072099996,None,1200.1177662439995,None,,11,3,4,,,,,102,23,2022_Sep_13_1400,templeton_exp2A_SD,2020.2.10,75.07379848212564,
,,,,,,,,,,,,,,,,,,,,,,42,0,42,0,,,,,,,,,,,,,,,,,,,,,,,,2.9000000000000004,1.6,2.9000000000000004,,,,,,,,,,,,,,,,,,,,,,,,,,,,,,,,,,,42,1166.2500991759998,3,5,2,8,4,6,1,9,0,0,3,1200.690701343,None,3,5,2,8,4,6,1,9,,1204.1562886419997,None,1204.1562886419997,None,1204.1562886419997,None,1204.1562886419997,None,1204.1562886419997,None,1204.1562886419997,None,1204.1562886419997,None,1204.1562886419997,None,1202.8501011669996,1203.3565701899997,1202.8501011669996,1203.3565701899997,1202.8501011669996,1203.3565701899997,None,None,left,1.0656258470007742,1204.1562886419997,None,None,None,z,0.23939156399956119,1205.2625153009994,None,1205.5157074209992,None,,12,4,5,,,,,102,23,2022_Sep_13_1400,templeton_exp2A_SD,2020.2.10,75.07379848212564,
,,,,,,,,,,,,,,,,,,,,,,43,0,43,0,,,,,,,,,,,,,,,,,,,,,,,,2.9000000000000004,1.6,2.9000000000000004,,,,,,,,,,,,,,,,,,,,,,,,,,,,,,,,,,,43,1171.6500013489995,4,8,1,6,0,7,3,9,0,1,7,1206.088825676,None,4,8,1,6,0,7,3,2,,1209.5541954439996,None,1209.5541954439996,None,1209.5541954439996,None,1209.5541954439996,None,1209.5541954439996,None,1209.5541954439996,None,1209.5541954439996,None,1209.5541954439996,None,1208.261387398,1208.7678578319992,1208.261387398,1208.7678578319992,1208.261387398,1208.7678578319992,None,None,down,1.3156901309994282,1209.5541954439996,None,None,None,x,0.19624716399994213,1210.9136976249993,None,1211.1270006319992,None,,13,5,6,,,,,102,23,2022_Sep_13_1400,templeton_exp2A_SD,2020.2.10,75.07379848212564,
,,,,,,,,,,,,,,,,,,,,,,44,0,44,0,,,,,,,,,,,,,,,,,,,,,,,,2.9000000000000004,1.6,2.9000000000000004,,,,,,,,,,,,,,,,,,,,,,,,,,,,,,,,,,,44,1177.2598923739997,2,9,3,5,0,8,1,6,0,0,0,1211.7001174419993,None,2,9,3,5,0,8,1,6,,1215.1654411299996,None,1215.1654411299996,None,1215.1654411299996,None,1215.1654411299996,None,1215.1654411299996,None,1215.1654411299996,None,1215.1654411299996,None,1215.1654411299996,None,1213.8592854829994,1214.3657185099992,1213.8592854829994,1214.3657185099992,1213.8592854829994,1214.3657185099992,None,None,left,1.216471095000088,1215.1654411299996,None,None,None,z,0.2543616570001177,1216.4315670449996,None,1216.711521614,None,,14,6,7,,,,,102,23,2022_Sep_13_1400,templeton_exp2A_SD,2020.2.10,75.07379848212564,
,,,,,,,,,,,,,,,,,,,,,,45,0,45,0,,,,,,,,,,,,,,,,,,,,,,,,2.9000000000000004,1.6,2.9000000000000004,,,,,,,,,,,,,,,,,,,,,,,,,,,,,,,,,,,45,1183.8534927869996,3,9,2,5,1,7,4,8,0,1,0,1218.2975918079992,None,0,9,2,5,1,7,4,8,,1221.7629593839993,None,1221.7629593839993,None,1221.7629593839993,None,1221.7629593839993,None,1221.7629593839993,None,1221.7629593839993,None,1221.7629593839993,None,1221.7629593839993,None,1220.4568411589999,1220.9632416149998,1220.4568411589999,1220.9632416149998,1220.4568411589999,1220.9632416149998,None,None,down,0.7629586000002746,1221.7629593839993,None,None,None,z,0.246037423999951,1222.575913615,None,1222.84249662,None,,15,7,8,,,,,102,23,2022_Sep_13_1400,templeton_exp2A_SD,2020.2.10,75.07379848212564,
,,,,,,,,,,,,,,,,,,,,,,46,0,46,0,,,,,,,,,,,,,,,,,,,,,,,,2.3000000000000003,2.4000000000000004,2.9000000000000004,,,,,,,,,,,,,,,,,,,,,,,,,,,,,,,,,,,46,1188.975972104,2,8,0,9,3,5,1,7,1,1,7,1223.4156604439995,None,2,8,0,9,3,5,1,4,,1226.2812312839997,None,1226.2812312839997,None,1226.2812312839997,None,1226.2812312839997,None,1226.2812312839997,None,1226.2812312839997,None,1226.2812312839997,None,1226.2812312839997,None,1226.374514526,1226.8810063109995,1226.374514526,1226.8810063109995,1226.374514526,1226.8810063109995,None,None,down,1.0874221639996904,1226.374514526,None,None,None,z,0.20234163199984323,1227.5074831089996,None,1227.7340331639998,None,,16,7,8,,,,,102,23,2022_Sep_13_1400,templeton_exp2A_SD,2020.2.10,75.07379848212564,
,,,,,,,,,,,,,,,,,,,,,,47,0,47,0,,,,,,,,,,,,,,,,,,,,,,,,2.9000000000000004,1.6,2.9000000000000004,,,,,,,,,,,,,,,,,,,,,,,,,,,,,,,,,,,47,1193.8667292749997,4,9,2,8,0,5,3,6,0,1,3,1228.3071468429998,None,4,9,2,1,0,5,3,6,,1231.7723819469993,None,1231.7723819469993,None,1231.7723819469993,None,1231.7723819469993,None,1231.7723819469993,None,1231.7723819469993,None,1231.7723819469993,None,1231.7723819469993,None,1230.4663171229995,1230.9727646059991,1230.4663171229995,1230.9727646059991,1230.4663171229995,1230.9727646059991,None,None,down,0.8015401799993924,1231.7723819469993,None,None,None,z,0.22840819799966994,1232.6254431399993,None,1232.8786583699994,None,,17,8,9,,,,,102,23,2022_Sep_13_1400,templeton_exp2A_SD,2020.2.10,75.07379848212564,
,,,,,,,,,,,,,,,,,,,,,,48,0,48,0,,,,,,,,,,,,,,,,,,,,,,,,3.1,3.2,3.7,,,,,,,,,,,,,,,,,,,,,,,,,,,,,,,,,,,48,1199.0121042640003,4,8,1,9,0,7,3,5,1,1,3,1233.45186303,None,4,8,1,2,0,7,3,5,,1237.1304488639998,None,1237.1304488639998,None,1237.1304488639998,None,1237.1304488639998,None,1237.1304488639998,None,1237.1304488639998,None,1237.1304488639998,None,1237.1304488639998,None,1237.2237364049997,1237.7302341549994,1237.2237364049997,1237.7302341549994,1237.2237364049997,1237.7302341549994,None,None,down,1.534102910999536,1237.2237364049997,None,None,None,x,0.1801116960004947,1238.8098227889996,None,1239.009703838,None,,18,8,9,,,,,102,23,2022_Sep_13_1400,templeton_exp2A_SD,2020.2.10,75.07379848212564,
,,,,,,,,,,,,,,,,,,,,,,49,0,49,0,,,,,,,,,,,,,,,,,,,,,,,,2.9000000000000004,1.6,2.9000000000000004,,,,,,,,,,,,,,,,,,,,,,,,,,,,,,,,,,,49,1205.14271277,2,7,0,9,4,8,3,5,0,0,2,1239.5827894899994,None,2,7,0,9,4,8,3,5,,1243.0482061519997,None,1243.0482061519997,None,1243.0482061519997,None,1243.0482061519997,None,1243.0482061519997,None,1243.0482061519997,None,1243.0482061519997,None,1243.0482061519997,None,1241.7420085079993,1242.2484872939995,1241.7420085079993,1242.2484872939995,1241.7420085079993,1242.2484872939995,None,None,left,1.3257087990004948,1243.0482061519997,None,None,None,z,0.2729420579998987,1244.420980287,None,1244.7142003469999,None,,19,9,10,,,,,102,23,2022_Sep_13_1400,templeton_exp2A_SD,2020.2.10,75.07379848212564,
,,,,,,,,,,,,,,,,,,,,,,50,0,50,0,,,,,,,,,,,,,,,,,,,,,,,,3.3000000000000003,3.4000000000000004,3.9000000000000004,,,,,,,,,,,,,,,,,,,,,,,,,,,,,,,,,,,50,1210.8467786290003,4,9,3,6,0,7,1,5,1,0,7,1245.287318451,None,4,9,3,6,0,7,1,5,,1249.1525177989997,None,1249.1525177989997,None,1249.1525177989997,None,1249.1525177989997,None,1249.1525177989997,None,1249.1525177989997,None,1249.1525177989997,None,1249.1525177989997,None,1249.245841647,1249.7523526259993,1249.245841647,1249.7523526259993,1249.245841647,1249.7523526259993,None,None,down,1.5120806990007623,1249.245841647,None,None,None,x,0.20066091599983338,1250.8051778049994,None,1251.0318257649997,None,,20,9,10,,,,,102,23,2022_Sep_13_1400,templeton_exp2A_SD,2020.2.10,75.07379848212564,
,,,,,,,,,,,,,,,,,,,,,,51,0,51,0,,,,,,,,,,,,,,,,,,,,,,,,3.1,3.2,3.7,,,,,,,,,,,,,,,,,,,,,,,,,,,,,,,,,,,51,1217.1648570059997,1,8,3,9,0,5,2,7,1,0,0,1251.6049017939995,None,1,8,3,9,0,5,2,7,,1255.2701698329993,None,1255.2701698329993,None,1255.2701698329993,None,1255.2701698329993,None,1255.2701698329993,None,1255.2701698329993,None,1255.2701698329993,None,1255.2701698329993,None,1255.3635445209993,1255.870013752,1255.3635445209993,1255.870013752,1255.3635445209993,1255.870013752,None,None,left,0.8983742589998656,1255.3635445209993,None,None,None,z,0.20802585699948395,1256.3098853689999,None,1256.5363696939994,None,,21,9,10,,,,,102,23,2022_Sep_13_1400,templeton_exp2A_SD,2020.2.10,75.07379848212564,
,,,,,,,,,,,,,,,,,,,,,,52,0,52,0,,,,,,,,,,,,,,,,,,,,,,,,1.9,2.0,2.5,,,,,,,,,,,,,,,,,,,,,,,,,,,,,,,,,,,52,1222.6696607490003,4,5,1,7,2,8,3,6,1,1,2,1257.109487144,None,4,5,0,7,2,8,3,6,,1259.5752698549995,None,1259.5752698549995,None,1259.5752698549995,None,1259.5752698549995,None,1259.5752698549995,None,1259.5752698549995,None,1259.5752698549995,None,1259.5752698549995,None,1259.6686026089992,1260.175032784,1259.6686026089992,1260.175032784,1259.6686026089992,1260.175032784,None,None,down,0.8493110259996683,1259.6686026089992,None,None,None,z,0.21237716100040416,1260.5615774919997,None,1260.7881005939998,None,,22,9,10,,,,,102,23,2022_Sep_13_1400,templeton_exp2A_SD,2020.2.10,75.07379848212564,
,,,,,,,,,,,,,,,,,,,,,,53,0,53,0,,,,,,,,,,,,,,,,,,,,,,,,2.9000000000000004,1.6,2.9000000000000004,,,,,,,,,,,,,,,,,,,,,,,,,,,,,,,,,,,53,1226.92127085,0,8,4,7,1,5,2,9,0,1,7,1261.3612921609993,None,0,8,4,7,1,5,2,3,,1264.8266059889993,None,1264.8266059889993,None,1264.8266059889993,None,1264.8266059889993,None,1264.8266059889993,None,1264.8266059889993,None,1264.8266059889993,None,1264.8266059889993,None,1263.5204433269992,1264.026721444,1263.5204433269992,1264.026721444,1263.5204433269992,1264.026721444,None,None,down,1.4433122500004174,1264.8266059889993,None,None,None,z,0.23060929300027055,1266.3193214429994,None,1266.5725990439996,None,,23,10,11,,,,,102,23,2022_Sep_13_1400,templeton_exp2A_SD,2020.2.10,75.07379848212564,
,,,,,,,,,,,,,,,,,,,,,,54,0,54,0,,,,,,,,,,,,,,,,,,,,,,,,2.9000000000000004,1.6,2.9000000000000004,,,,,,,,,,,,,,,,,,,,,,,,,,,,,,,,,,,54,1232.7052829550003,3,9,2,5,0,7,1,6,0,1,5,1267.1457467729997,None,3,9,2,5,0,4,1,6,,1270.5977747449997,None,1270.5977747449997,None,1270.5977747449997,None,1270.5977747449997,None,1270.5977747449997,None,1270.5977747449997,None,1270.5977747449997,None,1270.5977747449997,None,1269.3048738199996,1269.8114167139993,1269.3048738199996,1269.8114167139993,1269.3048738199996,1269.8114167139993,None,None,down,0.5121416309993947,1270.5977747449997,None,None,None,z,0.20026059999963763,1271.1575744579995,None,1271.38410407,None,,24,11,12,,,,,102,23,2022_Sep_13_1400,templeton_exp2A_SD,2020.2.10,75.07379848212564,
,,,,,,,,,,,,,,,,,,,,,,55,0,55,0,,,,,,,,,,,,,,,,,,,,,,,,2.7,2.8000000000000003,3.3000000000000003,,,,,,,,,,,,,,,,,,,,,,,,,,,,,,,,,,,55,1237.516200346,2,7,0,5,3,6,4,9,1,0,3,1271.9571832259999,None,2,7,0,5,3,6,4,9,,1275.2093618529998,None,1275.2093618529998,None,1275.2093618529998,None,1275.2093618529998,None,1275.2093618529998,None,1275.2093618529998,None,1275.2093618529998,None,1275.2093618529998,None,1275.3159986049995,1275.8223817219996,1275.3159986049995,1275.8223817219996,1275.3159986049995,1275.8223817219996,None,None,down,1.721856368999397,1275.3159986049995,None,None,None,x,0.21328139800061763,1277.0885866399994,None,1277.3151738029992,None,,25,11,12,,,,,102,23,2022_Sep_13_1400,templeton_exp2A_SD,2020.2.10,75.07379848212564,
,,,,,,,,,,,,,,,,,,,,,,56,0,56,0,,,,,,,,,,,,,,,,,,,,,,,,2.9000000000000004,1.6,2.9000000000000004,,,,,,,,,,,,,,,,,,,,,,,,,,,,,,,,,,,56,1243.4479687370003,2,6,4,7,1,8,3,5,0,0,6,1277.8883673649998,None,2,6,4,7,1,8,3,5,,1281.353668756,None,1281.353668756,None,1281.353668756,None,1281.353668756,None,1281.353668756,None,1281.353668756,None,1281.353668756,None,1281.353668756,None,1280.047517129,1280.5539247929992,1280.047517129,1280.5539247929992,1280.047517129,1280.5539247929992,None,None,left,0.6762577680001414,1281.353668756,None,None,None,z,0.17246141499981604,1282.0734013479996,None,1282.2599725269993,None,,26,12,13,,,,,102,23,2022_Sep_13_1400,templeton_exp2A_SD,2020.2.10,75.07379848212564,
,,,,,,,,,,,,,,,,,,,,,,57,0,57,0,,,,,,,,,,,,,,,,,,,,,,,,2.9000000000000004,1.6,2.9000000000000004,,,,,,,,,,,,,,,,,,,,,,,,,,,,,,,,,,,57,1248.3935904669997,0,7,3,9,4,6,2,8,0,0,7,1282.833129744,None,0,7,3,9,4,6,2,8,,1286.298490917,None,1286.298490917,None,1286.298490917,None,1286.298490917,None,1286.298490917,None,1286.298490917,None,1286.298490917,None,1286.298490917,None,1284.9923359639997,1285.498799133,1284.9923359639997,1285.498799133,1284.9923359639997,1285.498799133,None,None,left,0.8434233979996861,1286.298490917,None,None,None,z,0.22252981700057717,1287.1914116449998,None,1287.4313393919992,None,,27,13,14,,,,,102,23,2022_Sep_13_1400,templeton_exp2A_SD,2020.2.10,75.07379848212564,
,,,,,,,,,,,,,,,,,,,,,,58,0,58,0,,,,,,,,,,,,,,,,,,,,,,,,2.5,2.6,3.1,,,,,,,,,,,,,,,,,,,,,,,,,,,,,,,,,,,58,1253.564362002,4,8,2,5,0,7,1,9,1,1,5,1288.0044453369992,None,4,8,2,5,0,3,1,9,,1291.0700371189996,None,1291.0700371189996,None,1291.0700371189996,None,1291.0700371189996,None,1291.0700371189996,None,1291.0700371189996,None,1291.0700371189996,None,1291.0700371189996,None,1291.1633156439993,1291.6697323929993,1291.1633156439993,1291.6697323929993,1291.1633156439993,1291.6697323929993,None,None,down,0.8265275760004442,1291.1633156439993,None,None,None,z,0.23496798900032445,1292.042975196,None,1292.2962300599993,None,,28,13,14,,,,,102,23,2022_Sep_13_1400,templeton_exp2A_SD,2020.2.10,75.07379848212564,
,,,,,,,,,,,,,,,,,,,,,,59,0,59,0,,,,,,,,,,,,,,,,,,,,,,,,2.9000000000000004,1.6,2.9000000000000004,,,,,,,,,,,,,,,,,,,,,,,,,,,,,,,,,,,59,1258.4285033690003,3,5,4,7,1,6,0,9,0,1,4,1292.869359974,None,3,5,4,7,2,6,0,9,,1296.32136421,None,1296.32136421,None,1296.32136421,None,1296.32136421,None,1296.32136421,None,1296.32136421,None,1296.32136421,None,1296.32136421,None,1295.0285168149994,1295.5350027919994,1295.0285168149994,1295.5350027919994,1295.0285168149994,1295.5350027919994,None,None,down,1.2525476860000708,1296.32136421,None,None,None,z,0.1596815670000069,1297.6142599189998,None,1297.7874237399992,None,,29,14,15,,,,,102,23,2022_Sep_13_1400,templeton_exp2A_SD,2020.2.10,75.07379848212564,
,,,,,,,,,,,,,,,,,,,,,,60,0,60,0,,,,,,,,,,,,,,,,,,,,,,,,2.9000000000000004,1.6,2.9000000000000004,,,,,,,,,,,,,,,,,,,,,,,,,,,,,,,,,,,60,1265.0366451700002,3,9,1,6,4,8,0,5,0,0,5,1299.4801619169994,None,3,9,1,6,4,8,0,5,,1302.9455256789997,None,1302.9455256789997,None,1302.9455256789997,None,1302.9455256789997,None,1302.9455256789997,None,1302.9455256789997,None,1302.9455256789997,None,1302.9455256789997,None,1301.6392435369999,1302.1458304569996,1301.6392435369999,1302.1458304569996,1301.6392435369999,1302.1458304569996,None,None,left,0.9804007970005841,1302.9455256789997,None,None,None,z,0.21820063999984995,1303.9717285929992,None,1304.2115803959996,None,,30,15,16,,,,,102,23,2022_Sep_13_1400,templeton_exp2A_SD,2020.2.10,75.07379848212564,
,,,,,,,,,,,,,,,,,,,,,,61,0,61,0,,,,,,,,,,,,,,,,,,,,,,,,2.1,2.2,2.7,,,,,,,,,,,,,,,,,,,,,,,,,,,,,,,,,,,61,1270.3439441909995,0,9,4,7,1,5,2,6,1,0,4,1304.7848171729993,None,0,9,4,7,1,5,2,6,,1307.45049019,None,1307.45049019,None,1307.45049019,None,1307.45049019,None,1307.45049019,None,1307.45049019,None,1307.45049019,None,1307.45049019,None,1307.5437385099995,1308.0502419959994,1307.5437385099995,1308.0502419959994,1307.5437385099995,1308.0502419959994,None,None,left,1.2540885630005505,1307.5437385099995,None,None,None,z,0.18797729299967614,1308.849959145,None,1309.0631276369995,None,,31,15,16,,,,,102,23,2022_Sep_13_1400,templeton_exp2A_SD,2020.2.10,75.07379848212564,
,,,,,,,,,,,,,,,,,,,,,,62,0,62,0,,,,,,,,,,,,,,,,,,,,,,,,2.9,3.0,3.5,,,,,,,,,,,,,,,,,,,,,,,,,,,,,,,,,,,62,1275.1970905520002,1,8,0,6,4,9,3,7,1,0,0,1309.636306765,None,1,8,0,6,4,9,3,7,,1313.1016213529992,None,1313.1016213529992,None,1313.1016213529992,None,1313.1016213529992,None,1313.1016213529992,None,1313.1016213529992,None,1313.1016213529992,None,1313.1016213529992,None,1313.1949675679998,1313.7014265379994,1313.1949675679998,1313.7014265379994,1313.1949675679998,1313.7014265379994,None,None,left,0.8590101279996816,1313.1949675679998,None,None,None,z,0.24053363000075478,1314.101302991,None,1314.3677941729993,None,,32,15,16,,,,,102,23,2022_Sep_13_1400,templeton_exp2A_SD,2020.2.10,75.07379848212564,
,,,,,,,,,,,,,,,,,,,,,,63,0,63,0,,,,,,,,,,,,,,,,,,,,,,,,2.9000000000000004,1.6,2.9000000000000004,,,,,,,,,,,,,,,,,,,,,,,,,,,,,,,,,,,63,1280.5007000839996,1,7,3,5,4,8,2,9,0,1,0,1314.9409362359993,None,0,7,3,5,4,8,2,9,,1318.406313347,None,1318.406313347,None,1318.406313347,None,1318.406313347,None,1318.406313347,None,1318.406313347,None,1318.406313347,None,1318.406313347,None,1317.100158622,1317.6065850639998,1317.100158622,1317.6065850639998,1317.100158622,1317.6065850639998,None,None,down,0.7435957719999351,1318.406313347,None,None,None,z,0.5172324959994512,1319.1927063379999,None,1319.7257764699998,None,,33,16,17,,,,,102,23,2022_Sep_13_1400,templeton_exp2A_SD,2020.2.10,75.07379848212564,
,,,,,,,,,,,,,,,,,,,,,,64,0,64,0,,,,,,,,,,,,,,,,,,,,,,,,2.9000000000000004,1.6,2.9000000000000004,,,,,,,,,,,,,,,,,,,,,,,,,,,,,,,,,,,64,1285.859173422,1,5,3,9,0,7,2,8,0,0,6,1320.298875206,None,1,5,3,9,0,7,2,8,,1323.7643100989999,None,1323.7643100989999,None,1323.7643100989999,None,1323.7643100989999,None,1323.7643100989999,None,1323.7643100989999,None,1323.7643100989999,None,1323.7643100989999,None,1322.458115732,1322.9646241909995,1322.458115732,1322.9646241909995,1322.458115732,1322.9646241909995,None,None,left,1.3055789019999793,1323.7643100989999,None,None,None,x,0.3914896749993204,1325.1104427829996,None,1325.5235906749995,None,,34,17,18,,,,,102,23,2022_Sep_13_1400,templeton_exp2A_SD,2020.2.10,75.07379848212564,
,,,,,,,,,,,,,,,,,,,,,,65,0,65,0,,,,,,,,,,,,,,,,,,,,,,,,1.7,1.8,2.3,,,,,,,,,,,,,,,,,,,,,,,,,,,,,,,,,,,65,1291.6567335680002,1,9,2,6,3,5,0,8,1,0,5,1326.0966928139997,None,1,9,2,6,3,5,0,8,,1328.3624518159995,None,1328.3624518159995,None,1328.3624518159995,None,1328.3624518159995,None,1328.3624518159995,None,1328.3624518159995,None,1328.3624518159995,None,1328.3624518159995,None,1328.455796317,1328.9623260049993,1328.455796317,1328.9623260049993,1328.455796317,1328.9623260049993,None,None,down,1.7740402999997968,1328.455796317,None,None,None,x,0.1880935600001976,1330.281807757,None,1330.4950117489998,None,,35,17,18,,,,,102,23,2022_Sep_13_1400,templeton_exp2A_SD,2020.2.10,75.07379848212564,
,,,,,,,,,,,,,,,,,,,,,,66,0,66,0,,,,,,,,,,,,,,,,,,,,,,,,2.9,3.0,3.5,,,,,,,,,,,,,,,,,,,,,,,,,,,,,,,,,,,66,1296.628462961,1,8,0,7,2,6,3,9,1,0,4,1331.0681338949998,None,1,8,0,7,2,6,3,9,,1334.533558825,None,1334.533558825,None,1334.533558825,None,1334.533558825,None,1334.533558825,None,1334.533558825,None,1334.533558825,None,1334.533558825,None,1334.6267896979998,1335.133316427,1334.6267896979998,1335.133316427,1334.6267896979998,1335.133316427,None,None,left,1.347040783999546,1334.6267896979998,None,None,None,x,0.22762888000033854,1336.026288524,None,1336.2795467619999,None,,36,17,18,,,,,102,23,2022_Sep_13_1400,templeton_exp2A_SD,2020.2.10,75.07379848212564,
,,,,,,,,,,,,,,,,,,,,,,67,0,67,0,,,,,,,,,,,,,,,,,,,,,,,,2.7,2.8000000000000003,3.3000000000000003,,,,,,,,,,,,,,,,,,,,,,,,,,,,,,,,,,,67,1302.4120850110003,2,5,4,6,3,7,1,9,1,0,0,1336.852690842,None,2,5,4,6,3,7,1,9,,1340.1047247999995,None,1340.1047247999995,None,1340.1047247999995,None,1340.1047247999995,None,1340.1047247999995,None,1340.1047247999995,None,1340.1047247999995,None,1340.1047247999995,None,1340.2114085139992,1340.7178792259992,1340.2114085139992,1340.7178792259992,1340.2114085139992,1340.7178792259992,None,None,left,0.9625143000002936,1340.2114085139992,None,None,None,z,0.22960440699989704,1341.2243218859994,None,1341.4775234089993,None,,37,17,18,,,,,102,23,2022_Sep_13_1400,templeton_exp2A_SD,2020.2.10,75.07379848212564,
,,,,,,,,,,,,,,,,,,,,,,68,0,68,0,,,,,,,,,,,,,,,,,,,,,,,,2.9000000000000004,1.6,2.9000000000000004,,,,,,,,,,,,,,,,,,,,,,,,,,,,,,,,,,,68,1307.6106717430002,3,7,1,8,0,5,4,9,0,0,1,1342.0507012419994,None,3,7,1,8,0,5,4,9,,1345.5160578979994,None,1345.5160578979994,None,1345.5160578979994,None,1345.5160578979994,None,1345.5160578979994,None,1345.5160578979994,None,1345.5160578979994,None,1345.5160578979994,None,1344.2099394079996,1344.7163686059994,1344.2099394079996,1344.7163686059994,1344.2099394079996,1344.7163686059994,None,None,left,0.8178568310004266,1345.5160578979994,None,None,None,z,0.2235379470002954,1346.382353811,None,1346.6222302059996,None,,38,18,19,,,,,102,23,2022_Sep_13_1400,templeton_exp2A_SD,2020.2.10,75.07379848212564,
,,,,,,,,,,,,,,,,,,,,,,69,0,69,0,,,,,,,,,,,,,,,,,,,,,,,,1.5,1.6,2.1,,,,,,,,,,,,,,,,,,,,,,,,,,,,,,,,,,,69,1312.7553469040004,2,9,3,8,4,5,0,7,1,1,0,1347.1954279189995,None,1,9,3,8,4,5,0,7,,1349.2613015899997,None,1349.2613015899997,None,1349.2613015899997,None,1349.2613015899997,None,1349.2613015899997,None,1349.2613015899997,None,1349.2613015899997,None,1349.2613015899997,None,1349.3546303719995,1349.8610491639993,1349.3546303719995,1349.8610491639993,1349.3546303719995,1349.8610491639993,None,None,down,1.0272094769998148,1349.3546303719995,None,None,None,z,0.21181906399942818,1350.434174512,None,1350.6607133459993,None,,39,18,19,,,,,102,23,2022_Sep_13_1400,templeton_exp2A_SD,2020.2.10,75.07379848212564,
,,,,,,,,,,,,,,,,,,,,,,70,0,70,0,,,,,,,,,,,,,,,,,,,,,,,,3.5,3.6,4.1,,,,,,,,,,,,,,,,,,,,,,,,,,,,,,,,,,,70,1316.7942512090003,4,7,0,5,2,6,3,8,1,1,5,1351.2338485399996,None,4,7,0,5,2,1,3,8,,1355.2990031619993,None,1355.2990031619993,None,1355.2990031619993,None,1355.2990031619993,None,1355.2990031619993,None,1355.2990031619993,None,1355.2990031619993,None,1355.2990031619993,None,1355.3922756499996,1355.8987762079996,1355.3922756499996,1355.8987762079996,1355.3922756499996,1355.8987762079996,None,None,down,1.2777149370003826,1355.3922756499996,None,None,None,z,0.24612334199991892,1356.7118196519996,None,1356.9783730619993,None,,40,18,19,,,,,102,23,2022_Sep_13_1400,templeton_exp2A_SD,2020.2.10,75.07379848212564,
,,,,,,,,,,,,,,,,,,,,,,71,0,71,0,,,,,,,,,,,,,,,,,,,,,,,,2.9000000000000004,1.6,2.9000000000000004,,,,,,,,,,,,,,,,,,,,,,,,,,,,,,,,,,,71,1323.1113585399999,1,7,3,8,2,9,4,5,0,1,4,1357.5514644039995,None,1,7,3,8,0,9,4,5,,1361.016815862,None,1361.016815862,None,1361.016815862,None,1361.016815862,None,1361.016815862,None,1361.016815862,None,1361.016815862,None,1361.016815862,None,1359.7106152029992,1360.2171397029997,1359.7106152029992,1360.2171397029997,1359.7106152029992,1360.2171397029997,None,None,down,0.9650994350004112,1361.016815862,None,None,None,x,0.24002613600077893,1362.0297922999998,None,1362.2963699929996,None,,41,19,20,,,,,102,23,2022_Sep_13_1400,templeton_exp2A_SD,2020.2.10,75.07379848212564,
,,,,,,,,,,,,,,,,,,,,,,72,0,72,0,,,,,,,,,,,,,,,,,,,,,,,,3.3000000000000003,3.4000000000000004,3.9000000000000004,,,,,,,,,,,,,,,,,,,,,,,,,,,,,,,,,,,72,1328.4296331959995,1,9,0,5,2,8,3,7,1,0,6,1362.8694660229994,None,1,9,0,5,2,8,3,7,,1366.7346638119998,None,1366.7346638119998,None,1366.7346638119998,None,1366.7346638119998,None,1366.7346638119998,None,1366.7346638119998,None,1366.7346638119998,None,1366.7346638119998,None,1366.8279655749993,1367.3344449829992,1366.8279655749993,1367.3344449829992,1366.8279655749993,1367.3344449829992,None,None,left,1.4979562959997565,1366.8279655749993,None,None,None,x,0.13586844300061784,1368.3740644209993,None,1368.5340270399993,None,,42,19,20,,,,,102,23,2022_Sep_13_1400,templeton_exp2A_SD,2020.2.10,75.07379848212564,
,,,,,,,,,,,,,,,,,,,,,,73,0,73,0,,,,,,,,,,,,,,,,,,,,,,,,2.9,3.0,3.5,,,,,,,,,,,,,,,,,,,,,,,,,,,,,,,,,,,73,1334.6671254419998,1,8,4,9,2,5,3,7,1,0,7,1369.1070704589993,None,1,8,4,9,2,5,3,7,,1372.5724180039997,None,1372.5724180039997,None,1372.5724180039997,None,1372.5724180039997,None,1372.5724180039997,None,1372.5724180039997,None,1372.5724180039997,None,1372.5724180039997,None,1372.665764597,1373.1722200139993,1372.665764597,1373.1722200139993,1372.665764597,1373.1722200139993,None,None,left,1.5801693370003704,1372.665764597,None,None,None,z,0.25810938800077565,1374.2918177969996,None,1374.571656657,None,,43,19,20,,,,,102,23,2022_Sep_13_1400,templeton_exp2A_SD,2020.2.10,75.07379848212564,
,,,,,,,,,,,,,,,,,,,,,,74,0,74,0,,,,,,,,,,,,,,,,,,,,,,,,2.9000000000000004,1.6,2.9000000000000004,,,,,,,,,,,,,,,,,,,,,,,,,,,,,,,,,,,74,1340.7048027419996,3,5,2,9,0,7,1,8,0,0,0,1375.144776313,None,3,5,2,9,0,7,1,8,,1378.6102383569996,None,1378.6102383569996,None,1378.6102383569996,None,1378.6102383569996,None,1378.6102383569996,None,1378.6102383569996,None,1378.6102383569996,None,1378.6102383569996,None,1377.3040275169997,1377.8104073089999,1377.3040275169997,1377.8104073089999,1377.3040275169997,1377.8104073089999,None,None,left,0.8516338549998181,1378.6102383569996,None,None,None,z,0.19084910499987018,1379.5030800129998,None,1379.7163790249997,None,,44,20,21,,,,,102,23,2022_Sep_13_1400,templeton_exp2A_SD,2020.2.10,75.07379848212564,
,,,,,,,,,,,,,,,,,,,,,,75,0,75,0,,,,,,,,,,,,,,,,,,,,,,,,1.5,1.6,2.1,,,,,,,,,,,,,,,,,,,,,,,,,,,,,,,,,,,75,1360.6534204580003,4,5,2,7,3,8,1,6,1,0,1,1395.0972199749995,None,4,5,2,7,3,8,1,6,,1397.1631528959997,None,1397.1631528959997,None,1397.1631528959997,None,1397.1631528959997,None,1397.1631528959997,None,1397.1631528959997,None,1397.1631528959997,None,1397.1631528959997,None,1397.2697786969993,1397.7762597849996,1397.2697786969993,1397.7762597849996,1397.2697786969993,1397.7762597849996,None,None,left,1.1761265439999988,1397.2697786969993,None,None,None,x,0.2538274279995676,1398.4960125379994,None,1398.7758607359992,None,,45,20,21,,,,,102,23,2022_Sep_13_1400,templeton_exp2A_SD,2020.2.10,75.07379848212564,
,,,,,,,,,,,,,,,,,,,,,,76,0,76,0,,,,,,,,,,,,,,,,,,,,,,,,2.7,2.8000000000000003,3.3000000000000003,,,,,,,,,,,,,,,,,,,,,,,,,,,,,,,,,,,76,1364.9081791669996,2,7,3,5,4,6,1,9,1,1,2,1399.348976417,None,2,7,0,5,4,6,1,9,,1402.6010951629996,None,1402.6010951629996,None,1402.6010951629996,None,1402.6010951629996,None,1402.6010951629996,None,1402.6010951629996,None,1402.6010951629996,None,1402.6010951629996,None,1402.7077302219996,1403.2141912129991,1402.7077302219996,1403.2141912129991,1402.7077302219996,1403.2141912129991,None,None,down,0.8981908120003936,1402.7077302219996,None,None,None,z,0.2639470350004558,1403.6539921199992,None,1403.9339171949996,None,,46,20,21,,,,,102,23,2022_Sep_13_1400,templeton_exp2A_SD,2020.2.10,75.07379848212564,
,,,,,,,,,,,,,,,,,,,,,,77,0,77,0,,,,,,,,,,,,,,,,,,,,,,,,2.9000000000000004,1.6,2.9000000000000004,,,,,,,,,,,,,,,,,,,,,,,,,,,,,,,,,,,77,1370.0674901699995,2,6,3,7,0,8,1,9,0,0,4,1404.5070364129997,None,2,6,3,7,0,8,1,9,,1407.972279822,None,1407.972279822,None,1407.972279822,None,1407.972279822,None,1407.972279822,None,1407.972279822,None,1407.972279822,None,1407.972279822,None,1406.6662146339995,1407.1726528419995,1406.6662146339995,1407.1726528419995,1406.6662146339995,1407.1726528419995,None,None,down,0.8416387609995581,1407.972279822,None,None,None,x,0.23663950199988903,1408.8653345209996,None,1409.118664226,None,,47,20,22,,,,,102,23,2022_Sep_13_1400,templeton_exp2A_SD,2020.2.10,75.07379848212564,
,,,,,,,,,,,,,,,,,,,,,,78,0,78,0,,,,,,,,,,,,,,,,,,,,,,,,2.9000000000000004,1.6,2.9000000000000004,,,,,,,,,,,,,,,,,,,,,,,,,,,,,,,,,,,78,1375.2523450110002,3,7,0,8,1,9,4,6,0,1,2,1409.6916746069992,None,3,7,2,8,1,9,4,6,,1413.1571066079996,None,1413.1571066079996,None,1413.1571066079996,None,1413.1571066079996,None,1413.1571066079996,None,1413.1571066079996,None,1413.1571066079996,None,1413.1571066079996,None,1411.850919824,1412.3573677969998,1411.850919824,1412.3573677969998,1411.850919824,1412.3573677969998,None,None,down,2.4167647170006603,1413.1571066079996,None,None,None,x,0.21519192200048565,1415.6226978219993,None,1415.8626713269996,None,,48,21,23,,,,,102,23,2022_Sep_13_1400,templeton_exp2A_SD,2020.2.10,75.07379848212564,
,,,,,,,,,,,,,,,,,,,,,,79,0,79,0,,,,,,,,,,,,,,,,,,,,,,,,2.9000000000000004,1.6,2.9000000000000004,,,,,,,,,,,,,,,,,,,,,,,,,,,,,,,,,,,79,1381.9958645099996,4,8,0,6,1,9,2,7,0,1,3,1416.4357677889993,None,4,8,0,3,1,9,2,7,,1419.901208882,None,1419.901208882,None,1419.901208882,None,1419.901208882,None,1419.901208882,None,1419.901208882,None,1419.901208882,None,1419.901208882,None,1418.5950032989995,1419.1015190279995,1418.5950032989995,1419.1015190279995,1418.5950032989995,1419.1015190279995,None,None,down,0.9687167390002287,1419.901208882,None,None,None,z,0.21184214300046733,1420.9141192859997,None,1421.1406930079993,None,,49,22,24,1,0.9166666666666666,1,,102,23,2022_Sep_13_1400,templeton_exp2A_SD,2020.2.10,75.07379848212564,
,,,,,,,,,,,,,,,,,,,,,,80,0,80,0,,,,,,,,,,,,,,,,,,,,,,,,1.7,1.8,2.3,,,,,,,,,,,,,,,,,,,,,,,,,,,,,,,,,,,80,1387.2731598569999,2,7,0,6,4,5,1,9,1,1,6,1421.713844594,None,2,7,0,6,4,5,3,9,,1423.9663170489994,None,1423.9663170489994,None,1423.9663170489994,None,1423.9663170489994,None,1423.9663170489994,None,1423.9663170489994,None,1423.9663170489994,None,1423.9663170489994,None,1424.0729362119991,1424.5794144489992,1424.0729362119991,1424.5794144489992,1424.0729362119991,1424.5794144489992,None,None,down,2.3489883789998203,1424.0729362119991,None,None,None,x,0.15791506500045216,1426.4720246119996,None,1426.6452557009998,None,,50,22,24,,,,,102,23,2022_Sep_13_1400,templeton_exp2A_SD,2020.2.10,75.07379848212564,
,,,,,,,,,,,,,,,,,,,,,,81,0,81,0,,,,,,,,,,,,,,,,,,,,,,,,2.9000000000000004,1.6,2.9000000000000004,,,,,,,,,,,,,,,,,,,,,,,,,,,,,,,,,,,81,1392.7777365109996,0,9,1,6,2,7,3,5,0,1,0,1427.2184581539996,None,4,9,1,6,2,7,3,5,,1430.6703848029993,None,1430.6703848029993,None,1430.6703848029993,None,1430.6703848029993,None,1430.6703848029993,None,1430.6703848029993,None,1430.6703848029993,None,1430.6703848029993,None,1429.3776235429996,1429.8840849519993,1429.3776235429996,1429.8840849519993,1429.3776235429996,1429.8840849519993,None,None,down,1.0715265159997216,1430.6703848029993,None,None,None,z,0.2159076729994922,1431.7900202599994,None,1432.0298398559999,None,,51,23,25,,,,,102,23,2022_Sep_13_1400,templeton_exp2A_SD,2020.2.10,75.07379848212564,
,,,,,,,,,,,,,,,,,,,,,,82,0,82,0,,,,,,,,,,,,,,,,,,,,,,,,2.3000000000000003,2.4000000000000004,2.9000000000000004,,,,,,,,,,,,,,,,,,,,,,,,,,,,,,,,,,,82,1398.1633296649998,4,7,2,6,1,5,0,8,1,0,6,1432.6029506339992,None,4,7,2,6,1,5,0,8,,1435.4686547989995,None,1435.4686547989995,None,1435.4686547989995,None,1435.4686547989995,None,1435.4686547989995,None,1435.4686547989995,None,1435.4686547989995,None,1435.4686547989995,None,1435.5619335259998,1436.0684076529997,1435.5619335259998,1436.0684076529997,1435.5619335259998,1436.0684076529997,None,None,left,1.1880009500000597,1435.5619335259998,None,None,None,z,0.2044911739994859,1436.8014427039998,None,1437.0280340299996,None,,52,23,25,,,,,102,23,2022_Sep_13_1400,templeton_exp2A_SD,2020.2.10,75.07379848212564,
,,,,,,,,,,,,,,,,,,,,,,83,0,83,0,,,,,,,,,,,,,,,,,,,,,,,,2.9000000000000004,1.6,2.9000000000000004,,,,,,,,,,,,,,,,,,,,,,,,,,,,,,,,,,,83,1403.160590988,1,7,0,9,3,6,2,5,0,0,4,1437.6011448219997,None,1,7,0,9,3,6,2,5,,1441.0665190779991,None,1441.0665190779991,None,1441.0665190779991,None,1441.0665190779991,None,1441.0665190779991,None,1441.0665190779991,None,1441.0665190779991,None,1441.0665190779991,None,1439.760344493,1440.266768779,1439.760344493,1440.266768779,1439.760344493,1440.266768779,None,None,left,0.8914498000003732,1441.0665190779991,None,None,None,z,0.1904091320002408,1441.9995162319992,None,1442.212698542,None,,53,24,26,,,,,102,23,2022_Sep_13_1400,templeton_exp2A_SD,2020.2.10,75.07379848212564,
,,,,,,,,,,,,,,,,,,,,,,84,0,84,0,,,,,,,,,,,,,,,,,,,,,,,,2.9000000000000004,1.6,2.9000000000000004,,,,,,,,,,,,,,,,,,,,,,,,,,,,,,,,,,,84,1408.345988393,2,6,4,9,1,7,3,8,0,1,7,1442.785886267,None,2,6,4,9,1,7,3,0,,1446.2512182659993,None,1446.2512182659993,None,1446.2512182659993,None,1446.2512182659993,None,1446.2512182659993,None,1446.2512182659993,None,1446.2512182659993,None,1446.2512182659993,None,1444.9450305009996,1445.4515097869998,1444.9450305009996,1445.4515097869998,1444.9450305009996,1445.4515097869998,None,None,down,0.6986940299993876,1446.2512182659993,None,None,None,z,0.24021403599999758,1446.9976276459993,None,1447.2641652479997,None,,54,25,27,,,,,102,23,2022_Sep_13_1400,templeton_exp2A_SD,2020.2.10,75.07379848212564,
,,,,,,,,,,,,,,,,,,,,,,85,0,85,0,,,,,,,,,,,,,,,,,,,,,,,,3.3000000000000003,3.4000000000000004,3.9000000000000004,,,,,,,,,,,,,,,,,,,,,,,,,,,,,,,,,,,85,1413.396764053,4,6,1,5,0,9,2,7,1,0,6,1447.8372594029997,None,4,6,1,5,0,9,2,7,,1451.7025294389996,None,1451.7025294389996,None,1451.7025294389996,None,1451.7025294389996,None,1451.7025294389996,None,1451.7025294389996,None,1451.7025294389996,None,1451.7025294389996,None,1451.7957722319998,1452.3022733999996,1451.7957722319998,1452.3022733999996,1451.7957722319998,1452.3022733999996,None,None,left,1.586079071000313,1451.7957722319998,None,None,None,x,0.20817045199964923,1453.421773571,None,1453.648369009,None,,55,25,27,,,,,102,23,2022_Sep_13_1400,templeton_exp2A_SD,2020.2.10,75.07379848212564,
,,,,,,,,,,,,,,,,,,,,,,86,0,86,0,,,,,,,,,,,,,,,,,,,,,,,,2.9000000000000004,1.6,2.9000000000000004,,,,,,,,,,,,,,,,,,,,,,,,,,,,,,,,,,,86,1419.7814405509998,4,6,0,8,2,5,3,9,0,1,0,1454.2214714099991,None,1,6,0,8,2,5,3,9,,1457.6868517779994,None,1457.6868517779994,None,1457.6868517779994,None,1457.6868517779994,None,1457.6868517779994,None,1457.6868517779994,None,1457.6868517779994,None,1457.6868517779994,None,1456.3807086769993,1456.8871090099992,1456.3807086769993,1456.8871090099992,1456.3807086769993,1456.8871090099992,None,None,down,0.7750702640005329,1457.6868517779994,None,None,None,z,0.2447371700000076,1458.5131922629998,None,1458.7797432749994,None,,56,26,28,,,,,102,23,2022_Sep_13_1400,templeton_exp2A_SD,2020.2.10,75.07379848212564,
,,,,,,,,,,,,,,,,,,,,,,87,0,87,0,,,,,,,,,,,,,,,,,,,,,,,,2.9000000000000004,1.6,2.9000000000000004,,,,,,,,,,,,,,,,,,,,,,,,,,,,,,,,,,,87,1424.9125374209998,0,8,3,6,4,9,2,5,0,0,6,1459.352931892,None,0,8,3,6,4,9,2,5,,1462.8182998389993,None,1462.8182998389993,None,1462.8182998389993,None,1462.8182998389993,None,1462.8182998389993,None,1462.8182998389993,None,1462.8182998389993,None,1462.8182998389993,None,1461.5121013419994,1462.0185348739997,1461.5121013419994,1462.0185348739997,1461.5121013419994,1462.0185348739997,None,None,left,0.8675134989998696,1462.8182998389993,None,None,None,z,0.2040213689997472,1463.737906626,None,1463.9644767739992,None,,57,27,29,,,,,102,23,2022_Sep_13_1400,templeton_exp2A_SD,2020.2.10,75.07379848212564,
,,,,,,,,,,,,,,,,,,,,,,88,0,88,0,,,,,,,,,,,,,,,,,,,,,,,,2.9000000000000004,1.6,2.9000000000000004,,,,,,,,,,,,,,,,,,,,,,,,,,,,,,,,,,,88,1430.0975551029996,3,5,2,7,1,8,4,9,0,1,7,1464.5375459909992,None,3,5,2,7,1,8,4,0,,1468.0029159469996,None,1468.0029159469996,None,1468.0029159469996,None,1468.0029159469996,None,1468.0029159469996,None,1468.0029159469996,None,1468.0029159469996,None,1468.0029159469996,None,1466.6967637549997,1467.2032236969999,1466.6967637549997,1467.2032236969999,1466.6967637549997,1467.2032236969999,None,None,down,1.0269076919994404,1468.0029159469996,None,None,None,z,0.18726905100083968,1469.0825703259998,None,1469.2958245089994,None,,58,28,30,,,,,102,23,2022_Sep_13_1400,templeton_exp2A_SD,2020.2.10,75.07379848212564,
,,,,,,,,,,,,,,,,,,,,,,89,0,89,0,,,,,,,,,,,,,,,,,,,,,,,,2.9,3.0,3.5,,,,,,,,,,,,,,,,,,,,,,,,,,,,,,,,,,,89,1435.4297020080003,0,9,1,7,3,8,2,6,1,0,1,1469.868902024,None,0,9,1,7,3,8,2,6,,1473.3342796819998,None,1473.3342796819998,None,1473.3342796819998,None,1473.3342796819998,None,1473.3342796819998,None,1473.3342796819998,None,1473.3342796819998,None,1473.3342796819998,None,1473.4275898959995,1473.9340734109992,1473.4275898959995,1473.9340734109992,1473.4275898959995,1473.9340734109992,None,None,left,0.8662381809999715,1473.4275898959995,None,None,None,z,0.23990960500032088,1474.3339127499994,None,1474.6002363149992,None,,59,28,30,,,,,102,23,2022_Sep_13_1400,templeton_exp2A_SD,2020.2.10,75.07379848212564,
,,,,,,,,,,,,,,,,,,,,,,90,0,90,0,,,,,,,,,,,,,,,,,,,,,,,,1.9,2.0,2.5,,,,,,,,,,,,,,,,,,,,,,,,,,,,,,,,,,,90,1442.395090504,4,8,1,6,2,9,3,5,1,0,1,1476.8395307249993,None,4,8,1,6,2,9,3,5,,1479.305311743,None,1479.305311743,None,1479.305311743,None,1479.305311743,None,1479.305311743,None,1479.305311743,None,1479.305311743,None,1479.305311743,None,1479.3986282219994,1479.9050745429995,1479.3986282219994,1479.9050745429995,1479.3986282219994,1479.9050745429995,None,None,down,1.0312951089999842,1479.3986282219994,None,None,None,x,0.19167277099950297,1480.4782577939995,None,1480.6914715209996,None,,60,28,30,,,,,102,23,2022_Sep_13_1400,templeton_exp2A_SD,2020.2.10,75.07379848212564,
,,,,,,,,,,,,,,,,,,,,,,91,0,91,0,,,,,,,,,,,,,,,,,,,,,,,,2.9000000000000004,1.6,2.9000000000000004,,,,,,,,,,,,,,,,,,,,,,,,,,,,,,,,,,,91,1446.825029957,1,7,4,8,0,5,3,9,0,0,6,1481.2645567069994,None,1,7,4,8,0,5,3,9,,1484.7299692159995,None,1484.7299692159995,None,1484.7299692159995,None,1484.7299692159995,None,1484.7299692159995,None,1484.7299692159995,None,1484.7299692159995,None,1484.7299692159995,None,1483.4237587409998,1483.930263014,1483.4237587409998,1483.930263014,1483.4237587409998,1483.930263014,None,None,left,1.1159401119994072,1484.7299692159995,None,None,None,z,0.20445090799967147,1485.8894789689994,None,1486.1161032049995,None,,61,29,31,,,,,102,23,2022_Sep_13_1400,templeton_exp2A_SD,2020.2.10,75.07379848212564,
,,,,,,,,,,,,,,,,,,,,,,92,0,92,0,,,,,,,,,,,,,,,,,,,,,,,,1.7,1.8,2.3,,,,,,,,,,,,,,,,,,,,,,,,,,,,,,,,,,,92,1452.2497893,1,8,0,7,4,6,3,9,1,1,0,1486.6892140399996,None,2,8,0,7,4,6,3,9,,1488.9550051549995,None,1488.9550051549995,None,1488.9550051549995,None,1488.9550051549995,None,1488.9550051549995,None,1488.9550051549995,None,1488.9550051549995,None,1488.9550051549995,None,1489.0483343379992,1489.5548024049995,1489.0483343379992,1489.5548024049995,1489.0483343379992,1489.5548024049995,None,None,down,0.981600530999458,1489.0483343379992,None,None,None,z,0.1952368550000756,1490.0746637939992,None,1490.287887777,None,,62,29,31,,,,,102,23,2022_Sep_13_1400,templeton_exp2A_SD,2020.2.10,75.07379848212564,
,,,,,,,,,,,,,,,,,,,,,,93,0,93,0,,,,,,,,,,,,,,,,,,,,,,,,3.1,3.2,3.7,,,,,,,,,,,,,,,,,,,,,,,,,,,,,,,,,,,93,1456.4215813089995,0,6,1,9,2,8,3,7,1,0,7,1490.8609394899995,None,0,6,1,9,2,8,3,7,,1494.5262665699993,None,1494.5262665699993,None,1494.5262665699993,None,1494.5262665699993,None,1494.5262665699993,None,1494.5262665699993,None,1494.5262665699993,None,1494.5262665699993,None,1494.6195187469993,1495.1259965169993,1494.6195187469993,1495.1259965169993,1494.6195187469993,1495.1259965169993,None,None,left,0.8584051469997576,1494.6195187469993,None,None,None,z,0.2159711510003035,1495.5259623439997,None,1495.7657505669995,None,,63,29,31,,,,,102,23,2022_Sep_13_1400,templeton_exp2A_SD,2020.2.10,75.07379848212564,
,,,,,,,,,,,,,,,,,,,,,,94,0,94,0,,,,,,,,,,,,,,,,,,,,,,,,2.9000000000000004,1.6,2.9000000000000004,,,,,,,,,,,,,,,,,,,,,,,,,,,,,,,,,,,94,1461.899547074,3,9,4,5,1,7,0,8,0,0,0,1496.3388449729991,None,3,9,4,5,1,7,0,8,,1499.804208656,None,1499.804208656,None,1499.804208656,None,1499.804208656,None,1499.804208656,None,1499.804208656,None,1499.804208656,None,1499.804208656,None,1498.4980605519995,1499.0045144379992,1498.4980605519995,1499.0045144379992,1498.4980605519995,1499.0045144379992,None,None,left,0.5617128419999062,1499.804208656,None,None,None,z,0.20459961400047177,1500.4173293929998,None,1500.6438710899993,None,,64,30,32,,,,,102,23,2022_Sep_13_1400,templeton_exp2A_SD,2020.2.10,75.07379848212564,
,,,,,,,,,,,,,,,,,,,,,,95,0,95,0,,,,,,,,,,,,,,,,,,,,,,,,2.1,2.2,2.7,,,,,,,,,,,,,,,,,,,,,,,,,,,,,,,,,,,95,1466.777137272,3,7,2,6,4,5,1,8,1,1,0,1501.217051144,None,0,7,2,6,4,5,1,8,,1503.882714935,None,1503.882714935,None,1503.882714935,None,1503.882714935,None,1503.882714935,None,1503.882714935,None,1503.882714935,None,1503.882714935,None,1503.9759740559994,1504.4824858319998,1503.9759740559994,1504.4824858319998,1503.9759740559994,1504.4824858319998,None,None,down,1.4538535850006156,1503.9759740559994,None,None,None,z,0.2038629150001725,1505.482083207,None,1505.7086354329995,None,,65,30,32,,,,,102,23,2022_Sep_13_1400,templeton_exp2A_SD,2020.2.10,75.07379848212564,
,,,,,,,,,,,,,,,,,,,,,,96,0,96,0,,,,,,,,,,,,,,,,,,,,,,,,2.9000000000000004,1.6,2.9000000000000004,,,,,,,,,,,,,,,,,,,,,,,,,,,,,,,,,,,96,1471.8422108639998,2,7,3,8,0,5,1,9,0,0,7,1506.281732814,None,2,7,3,8,0,5,1,9,,1509.7471643459994,None,1509.7471643459994,None,1509.7471643459994,None,1509.7471643459994,None,1509.7471643459994,None,1509.7471643459994,None,1509.7471643459994,None,1509.7471643459994,None,1508.440958491,1508.9473937679995,1508.440958491,1508.9473937679995,1508.440958491,1508.9473937679995,None,None,left,0.7066574020000189,1509.7471643459994,None,None,None,z,0.20307047400001466,1510.5068588249997,None,1510.733399705,None,,66,31,33,,,,,102,23,2022_Sep_13_1400,templeton_exp2A_SD,2020.2.10,75.07379848212564,
,,,,,,,,,,,,,,,,,,,,,,97,0,97,0,,,,,,,,,,,,,,,,,,,,,,,,2.9000000000000004,1.6,2.9000000000000004,,,,,,,,,,,,,,,,,,,,,,,,,,,,,,,,,,,97,1476.8665514249997,0,8,4,6,3,5,2,9,0,0,1,1511.3065970909993,None,0,8,4,6,3,5,2,9,,1514.771887639,None,1514.771887639,None,1514.771887639,None,1514.771887639,None,1514.771887639,None,1514.771887639,None,1514.771887639,None,1514.771887639,None,1513.465734851,1513.9721667699996,1513.465734851,1513.9721667699996,1513.465734851,1513.9721667699996,None,None,down,1.2580251689996658,1514.771887639,None,None,None,x,0.19983861400032765,1516.0780910009998,None,1516.2913031639991,None,,67,31,34,,,,,102,23,2022_Sep_13_1400,templeton_exp2A_SD,2020.2.10,75.07379848212564,
,,,,,,,,,,,,,,,,,,,,,,98,0,98,0,,,,,,,,,,,,,,,,,,,,,,,,2.9000000000000004,1.6,2.9000000000000004,,,,,,,,,,,,,,,,,,,,,,,,,,,,,,,,,,,98,1482.4251370279999,0,9,1,6,2,8,3,7,0,1,1,1516.8644486079993,None,0,4,1,6,2,8,3,7,,1520.3298249629997,None,1520.3298249629997,None,1520.3298249629997,None,1520.3298249629997,None,1520.3298249629997,None,1520.3298249629997,None,1520.3298249629997,None,1520.3298249629997,None,1519.0369122319998,1519.5434276669994,1519.0369122319998,1519.5434276669994,1519.0369122319998,1519.5434276669994,None,None,down,0.9321231959993383,1520.3298249629997,None,None,None,z,0.19117538200043782,1521.302752437,None,1521.5160352209996,None,,68,32,35,,,,,102,23,2022_Sep_13_1400,templeton_exp2A_SD,2020.2.10,75.07379848212564,
,,,,,,,,,,,,,,,,,,,,,,99,0,99,0,,,,,,,,,,,,,,,,,,,,,,,,2.9000000000000004,1.6,2.9000000000000004,,,,,,,,,,,,,,,,,,,,,,,,,,,,,,,,,,,99,1487.6491125860002,1,7,3,9,4,5,0,8,0,0,1,1522.0891712099992,None,1,7,3,9,4,5,0,8,,1525.5544977599993,None,1525.5544977599993,None,1525.5544977599993,None,1525.5544977599993,None,1525.5544977599993,None,1525.5544977599993,None,1525.5544977599993,None,1525.5544977599993,None,1524.2483270489993,1524.754760328,1524.2483270489993,1524.754760328,1524.2483270489993,1524.754760328,None,None,down,3.099471296000047,1525.5544977599993,None,None,None,x,0.19395627600079024,1528.6999869659994,None,1528.9131791569998,None,,69,32,36,,,,,102,23,2022_Sep_13_1400,templeton_exp2A_SD,2020.2.10,75.07379848212564,
,,,,,,,,,,,,,,,,,,,,,,100,0,100,0,,,,,,,,,,,,,,,,,,,,,,,,2.3000000000000003,2.4000000000000004,2.9000000000000004,,,,,,,,,,,,,,,,,,,,,,,,,,,,,,,,,,,100,1495.046614543,1,6,2,9,0,7,3,8,1,0,2,1529.4863660709998,None,1,6,2,9,0,7,3,8,,1532.3519498379992,None,1532.3519498379992,None,1532.3519498379992,None,1532.3519498379992,None,1532.3519498379992,None,1532.3519498379992,None,1532.3519498379992,None,1532.3519498379992,None,1532.4452229039998,1532.9517451419997,1532.4452229039998,1532.9517451419997,1532.4452229039998,1532.9517451419997,None,None,down,1.3687100639999699,1532.4452229039998,None,None,None,c,0.22793488100069226,1533.85798402,None,1534.1111855109993,None,,70,32,36,,,,,102,23,2022_Sep_13_1400,templeton_exp2A_SD,2020.2.10,75.07379848212564,
,,,,,,,,,,,,,,,,,,,,,,101,0,101,0,,,,,,,,,,,,,,,,,,,,,,,,2.9000000000000004,1.6,2.9000000000000004,,,,,,,,,,,,,,,,,,,,,,,,,,,,,,,,,,,101,1500.243985006,0,8,4,7,2,6,3,9,0,1,4,1534.6843987899992,None,0,8,4,7,1,6,3,9,,1538.1497262819994,None,1538.1497262819994,None,1538.1497262819994,None,1538.1497262819994,None,1538.1497262819994,None,1538.1497262819994,None,1538.1497262819994,None,1538.1497262819994,None,1536.8434805359993,1537.3500233119994,1536.8434805359993,1537.3500233119994,1536.8434805359993,1537.3500233119994,None,None,down,0.7682007989997146,1538.1497262819994,None,None,None,z,0.15517774099953385,1538.9627598689995,None,1539.1359632169997,None,,71,33,37,,,,,102,23,2022_Sep_13_1400,templeton_exp2A_SD,2020.2.10,75.07379848212564,
,,,,,,,,,,,,,,,,,,,,,,102,0,102,0,,,,,,,,,,,,,,,,,,,,,,,,3.3000000000000003,3.4000000000000004,3.9000000000000004,,,,,,,,,,,,,,,,,,,,,,,,,,,,,,,,,,,102,1505.2699966190003,3,9,0,6,2,5,4,8,1,0,3,1539.7090725119997,None,3,9,0,6,2,5,4,8,,1543.5743395739992,None,1543.5743395739992,None,1543.5743395739992,None,1543.5743395739992,None,1543.5743395739992,None,1543.5743395739992,None,1543.5743395739992,None,1543.5743395739992,None,1543.6676259139995,1544.174097614,1543.6676259139995,1544.174097614,1543.6676259139995,1544.174097614,None,None,down,1.6743099960003747,1543.6676259139995,None,None,None,x,0.3550019300000713,1545.3869384239997,None,1545.7601286509998,None,,72,33,37,,,,,102,23,2022_Sep_13_1400,templeton_exp2A_SD,2020.2.10,75.07379848212564,
,,,,,,,,,,,,,,,,,,,,,,103,0,103,0,,,,,,,,,,,,,,,,,,,,,,,,2.9,3.0,3.5,,,,,,,,,,,,,,,,,,,,,,,,,,,,,,,,,,,103,1511.8934964999999,0,6,4,8,1,7,2,5,1,0,2,1546.3332780419996,None,0,6,4,8,1,7,2,5,,1549.7986187959996,None,1549.7986187959996,None,1549.7986187959996,None,1549.7986187959996,None,1549.7986187959996,None,1549.7986187959996,None,1549.7986187959996,None,1549.7986187959996,None,1549.8919466909992,1550.398385126,1549.8919466909992,1550.398385126,1549.8919466909992,1550.398385126,None,None,left,1.225975823999761,1549.8919466909992,None,None,None,z,0.19173525899986998,1551.158190491,None,1551.3713975649998,None,,73,33,37,,,,,102,23,2022_Sep_13_1400,templeton_exp2A_SD,2020.2.10,75.07379848212564,
,,,,,,,,,,,,,,,,,,,,,,104,0,104,0,,,,,,,,,,,,,,,,,,,,,,,,2.9000000000000004,1.6,2.9000000000000004,,,,,,,,,,,,,,,,,,,,,,,,,,,,,,,,,,,104,1517.5049211309997,2,9,1,8,0,7,3,6,0,0,4,1551.944504571,None,2,9,1,8,0,7,3,6,,1555.4099031269998,None,1555.4099031269998,None,1555.4099031269998,None,1555.4099031269998,None,1555.4099031269998,None,1555.4099031269998,None,1555.4099031269998,None,1555.4099031269998,None,1554.103618737,1554.6101327629995,1554.103618737,1554.6101327629995,1554.103618737,1554.6101327629995,None,None,left,1.4040104569994583,1555.4099031269998,None,None,None,x,0.1994409730004918,1556.862487724,None,1557.0758319899996,None,,74,34,38,,,,,102,23,2022_Sep_13_1400,templeton_exp2A_SD,2020.2.10,75.07379848212564,
,,,,,,,,,,,,,,,,,,,,,,105,0,105,0,,,,,,,,,,,,,,,,,,,,,,,,1.7,1.8,2.3,,,,,,,,,,,,,,,,,,,,,,,,,,,,,,,,,,,105,1525.0978712509996,3,6,2,8,0,5,4,9,1,1,6,1559.5415913079996,None,3,6,2,8,0,5,1,9,,1561.8074352949998,None,1561.8074352949998,None,1561.8074352949998,None,1561.8074352949998,None,1561.8074352949998,None,1561.8074352949998,None,1561.8074352949998,None,1561.8074352949998,None,1561.900724401,1562.4072191379992,1561.900724401,1562.4072191379992,1561.900724401,1562.4072191379992,None,None,down,0.945206665999649,1561.900724401,None,None,None,z,0.23904182499973103,1562.8869507719992,None,1563.1402167899996,None,,75,34,38,,,,,102,23,2022_Sep_13_1400,templeton_exp2A_SD,2020.2.10,75.07379848212564,
,,,,,,,,,,,,,,,,,,,,,,106,0,106,0,,,,,,,,,,,,,,,,,,,,,,,,1.5,1.6,2.1,,,,,,,,,,,,,,,,,,,,,,,,,,,,,,,,,,,106,1529.2740681320001,2,5,1,9,3,8,0,7,1,0,6,1563.7134087959994,None,2,5,1,9,3,8,0,7,,1565.7792478259998,None,1565.7792478259998,None,1565.7792478259998,None,1565.7792478259998,None,1565.7792478259998,None,1565.7792478259998,None,1565.7792478259998,None,1565.7792478259998,None,1565.8724629689996,1566.3790411999998,1565.8724629689996,1566.3790411999998,1565.8724629689996,1566.3790411999998,None,None,left,1.3333697240004767,1565.8724629689996,None,None,None,x,0.19523976300024515,1567.2587012169997,None,1567.471926657,None,,76,34,38,,,,,102,23,2022_Sep_13_1400,templeton_exp2A_SD,2020.2.10,75.07379848212564,
,,,,,,,,,,,,,,,,,,,,,,107,0,107,0,,,,,,,,,,,,,,,,,,,,,,,,2.9000000000000004,1.6,2.9000000000000004,,,,,,,,,,,,,,,,,,,,,,,,,,,,,,,,,,,107,1533.6051648909997,0,8,2,6,1,7,4,5,0,0,6,1568.0450302479994,None,0,8,2,6,1,7,4,5,,1571.5104055479997,None,1571.5104055479997,None,1571.5104055479997,None,1571.5104055479997,None,1571.5104055479997,None,1571.5104055479997,None,1571.5104055479997,None,1571.5104055479997,None,1570.204211106,1570.7106991859991,1570.204211106,1570.7106991859991,1570.204211106,1570.7106991859991,None,None,left,0.3835455530006584,1571.5104055479997,None,None,None,z,0.22109496899975056,1571.9368709829996,None,1572.1768624139995,None,,77,35,39,,,,,102,23,2022_Sep_13_1400,templeton_exp2A_SD,2020.2.10,75.07379848212564,
,,,,,,,,,,,,,,,,,,,,,,108,0,108,0,,,,,,,,,,,,,,,,,,,,,,,,1.9,2.0,2.5,,,,,,,,,,,,,,,,,,,,,,,,,,,,,,,,,,,108,1538.3099616600002,2,9,0,5,1,8,4,6,1,1,2,1572.7499136449997,None,2,9,3,5,1,8,4,6,,1575.2156571409996,None,1575.2156571409996,None,1575.2156571409996,None,1575.2156571409996,None,1575.2156571409996,None,1575.2156571409996,None,1575.2156571409996,None,1575.2156571409996,None,1575.3089861169992,1575.8154339489993,1575.3089861169992,1575.8154339489993,1575.3089861169992,1575.8154339489993,None,None,down,1.5609168359997057,1575.3089861169992,None,None,None,z,0.16425771500053088,1576.921671434,None,1577.1082585059994,None,,78,35,39,,,,,102,23,2022_Sep_13_1400,templeton_exp2A_SD,2020.2.10,75.07379848212564,
,,,,,,,,,,,,,,,,,,,,,,109,0,109,0,,,,,,,,,,,,,,,,,,,,,,,,2.9000000000000004,1.6,2.9000000000000004,,,,,,,,,,,,,,,,,,,,,,,,,,,,,,,,,,,109,1543.2404148320002,1,7,2,5,0,6,4,9,0,0,7,1577.6813526939995,None,1,7,2,5,0,6,4,9,,1581.1334407719996,None,1581.1334407719996,None,1581.1334407719996,None,1581.1334407719996,None,1581.1334407719996,None,1581.1334407719996,None,1581.1334407719996,None,1581.1334407719996,None,1579.8405705639998,1580.3469997979992,1579.8405705639998,1580.3469997979992,1579.8405705639998,1580.3469997979992,None,None,down,1.832486205999885,1581.1334407719996,None,None,None,x,0.1852197600001091,1583.0126944009999,None,1583.2126011609998,None,,79,35,40,,,,,102,23,2022_Sep_13_1400,templeton_exp2A_SD,2020.2.10,75.07379848212564,
,,,,,,,,,,,,,,,,,,,,,,110,0,110,0,,,,,,,,,,,,,,,,,,,,,,,,2.9000000000000004,1.6,2.9000000000000004,,,,,,,,,,,,,,,,,,,,,,,,,,,,,,,,,,,110,1549.345116136,3,9,0,6,4,7,1,5,0,0,0,1583.785757441,None,3,9,0,6,4,7,1,5,,1587.2511496239995,None,1587.2511496239995,None,1587.2511496239995,None,1587.2511496239995,None,1587.2511496239995,None,1587.2511496239995,None,1587.2511496239995,None,1587.2511496239995,None,1585.9449532029994,1586.4514263859992,1585.9449532029994,1586.4514263859992,1585.9449532029994,1586.4514263859992,None,None,left,0.7708092440007022,1587.2511496239995,None,None,None,z,0.19780338600048708,1588.064136514,None,1588.2773410089994,None,,80,36,41,,,,,102,23,2022_Sep_13_1400,templeton_exp2A_SD,2020.2.10,75.07379848212564,
,,,,,,,,,,,,,,,,,,,,,,111,0,111,0,,,,,,,,,,,,,,,,,,,,,,,,2.9000000000000004,1.6,2.9000000000000004,,,,,,,,,,,,,,,,,,,,,,,,,,,,,,,,,,,111,1554.4093266600003,2,7,4,9,3,6,0,5,0,1,4,1588.8505161819994,None,2,7,4,9,1,6,0,5,,1592.3024647149996,None,1592.3024647149996,None,1592.3024647149996,None,1592.3024647149996,None,1592.3024647149996,None,1592.3024647149996,None,1592.3024647149996,None,1592.3024647149996,None,1591.0097589049992,1591.5161859809996,1591.0097589049992,1591.5161859809996,1591.0097589049992,1591.5161859809996,None,None,left,2.8393575290001536,1592.3024647149996,None,None,None,x,0.2191441360000681,1595.194797229,None,1595.4346575969994,None,,81,36,42,,,,,102,23,2022_Sep_13_1400,templeton_exp2A_SD,2020.2.10,75.07379848212564,
,,,,,,,,,,,,,,,,,,,,,,112,0,112,0,,,,,,,,,,,,,,,,,,,,,,,,1.5,1.6,2.1,,,,,,,,,,,,,,,,,,,,,,,,,,,,,,,,,,,112,1561.5679645499995,1,7,4,5,0,8,2,6,1,1,7,1596.0078384109993,None,1,7,4,5,0,8,2,3,,1598.0737023949996,None,1598.0737023949996,None,1598.0737023949996,None,1598.0737023949996,None,1598.0737023949996,None,1598.0737023949996,None,1598.0737023949996,None,1598.0737023949996,None,1598.1803166319996,1598.6867659909994,1598.1803166319996,1598.6867659909994,1598.1803166319996,1598.6867659909994,None,None,down,1.0896247360005873,1598.1803166319996,None,None,None,z,0.24471207900023728,1599.3132184339993,None,1599.57971164,None,,82,36,42,,,,,102,23,2022_Sep_13_1400,templeton_exp2A_SD,2020.2.10,75.07379848212564,
,,,,,,,,,,,,,,,,,,,,,,113,0,113,0,,,,,,,,,,,,,,,,,,,,,,,,2.9000000000000004,1.6,2.9000000000000004,,,,,,,,,,,,,,,,,,,,,,,,,,,,,,,,,,,113,1565.713276601,2,7,1,8,0,5,3,6,0,1,6,1600.1528840479996,None,2,7,1,8,0,5,4,6,,1603.6182265299994,None,1603.6182265299994,None,1603.6182265299994,None,1603.6182265299994,None,1603.6182265299994,None,1603.6182265299994,None,1603.6182265299994,None,1603.6182265299994,None,1602.3120960279994,1602.8185781129996,1602.3120960279994,1602.8185781129996,1602.3120960279994,1602.8185781129996,None,None,down,4.011684500999763,1603.6182265299994,None,None,None,z,0.2718656639999608,1607.6700631499998,None,1607.9632548529999,None,,83,37,43,,,,,102,23,2022_Sep_13_1400,templeton_exp2A_SD,2020.2.10,75.07379848212564,
,,,,,,,,,,,,,,,,,,,,,,114,0,114,0,,,,,,,,,,,,,,,,,,,,,,,,2.9000000000000004,1.6,2.9000000000000004,,,,,,,,,,,,,,,,,,,,,,,,,,,,,,,,,,,114,1574.0963454820003,0,8,4,9,1,7,3,5,0,1,1,1608.536393599,None,0,2,4,9,1,7,3,5,,1612.0017242629992,None,1612.0017242629992,None,1612.0017242629992,None,1612.0017242629992,None,1612.0017242629992,None,1612.0017242629992,None,1612.0017242629992,None,1612.0017242629992,None,1610.6955734899993,1611.2017820789997,1610.6955734899993,1611.2017820789997,1610.6955734899993,1611.2017820789997,None,None,left,1.8441916000001584,1612.0017242629992,None,None,None,x,0.17564202199991996,1613.8942885289998,None,1614.0942890859997,None,,84,37,44,,,,,102,23,2022_Sep_13_1400,templeton_exp2A_SD,2020.2.10,75.07379848212564,
,,,,,,,,,,,,,,,,,,,,,,115,0,115,0,,,,,,,,,,,,,,,,,,,,,,,,3.3000000000000003,3.4000000000000004,3.9000000000000004,,,,,,,,,,,,,,,,,,,,,,,,,,,,,,,,,,,115,1580.2274899389995,4,7,3,5,2,6,0,8,1,1,0,1614.6674017759997,None,1,7,3,5,2,6,0,8,,1618.5326042099996,None,1618.5326042099996,None,1618.5326042099996,None,1618.5326042099996,None,1618.5326042099996,None,1618.5326042099996,None,1618.5326042099996,None,1618.5326042099996,None,1618.6259489609993,1619.1323872499997,1618.6259489609993,1619.1323872499997,1618.6259489609993,1619.1323872499997,None,None,left,2.155984521999926,1618.6259489609993,None,None,None,x,0.1568240730002799,1620.8251172619994,None,1620.9983308289993,None,,85,37,44,,,,,102,23,2022_Sep_13_1400,templeton_exp2A_SD,2020.2.10,75.07379848212564,
,,,,,,,,,,,,,,,,,,,,,,116,0,116,0,,,,,,,,,,,,,,,,,,,,,,,,2.3000000000000003,2.4000000000000004,2.9000000000000004,,,,,,,,,,,,,,,,,,,,,,,,,,,,,,,,,,,116,1587.1317386150004,3,6,0,7,2,5,4,8,1,0,2,1621.5714585759997,None,3,6,0,7,2,5,4,8,,1624.436929607,None,1624.436929607,None,1624.436929607,None,1624.436929607,None,1624.436929607,None,1624.436929607,None,1624.436929607,None,1624.436929607,None,1624.5303446359994,1625.036633529,1624.5303446359994,1625.036633529,1624.5303446359994,1625.036633529,None,None,down,1.2996112749997337,1624.5303446359994,None,None,None,x,0.2014027929999429,1625.8764967469997,None,1626.1029591409997,None,,86,37,44,,,,,102,23,2022_Sep_13_1400,templeton_exp2A_SD,2020.2.10,75.07379848212564,
,,,,,,,,,,,,,,,,,,,,,,117,0,117,0,,,,,,,,,,,,,,,,,,,,,,,,2.7,2.8000000000000003,3.3000000000000003,,,,,,,,,,,,,,,,,,,,,,,,,,,,,,,,,,,117,1592.2365128829997,0,8,1,7,3,9,2,6,1,1,5,1626.6761436689994,None,0,8,1,7,3,4,2,6,,1629.941633986,None,1629.941633986,None,1629.941633986,None,1629.941633986,None,1629.941633986,None,1629.941633986,None,1629.941633986,None,1629.941633986,None,1630.0482243999995,1630.5546527569995,1630.0482243999995,1630.5546527569995,1630.0482243999995,1630.5546527569995,None,None,down,0.9096996480002417,1630.0482243999995,None,None,None,z,0.2700458979998075,1631.0078826469999,None,1631.3010412099993,None,,87,37,44,,,,,102,23,2022_Sep_13_1400,templeton_exp2A_SD,2020.2.10,75.07379848212564,
,,,,,,,,,,,,,,,,,,,,,,118,0,118,0,,,,,,,,,,,,,,,,,,,,,,,,2.9000000000000004,1.6,2.9000000000000004,,,,,,,,,,,,,,,,,,,,,,,,,,,,,,,,,,,118,1597.43402031,0,9,2,8,3,5,1,7,0,1,2,1631.8742281249997,None,0,9,4,8,3,5,1,7,,1635.3394670799998,None,1635.3394670799998,None,1635.3394670799998,None,1635.3394670799998,None,1635.3394670799998,None,1635.3394670799998,None,1635.3394670799998,None,1635.3394670799998,None,1634.0334044439996,1634.5398911089997,1634.0334044439996,1634.5398911089997,1634.0334044439996,1634.5398911089997,None,None,down,0.9463827460003813,1635.3394670799998,None,None,None,z,0.18401143000028242,1636.3259429689997,None,1636.5257821249998,None,,88,38,45,,,,,102,23,2022_Sep_13_1400,templeton_exp2A_SD,2020.2.10,75.07379848212564,
,,,,,,,,,,,,,,,,,,,,,,119,0,119,0,,,,,,,,,,,,,,,,,,,,,,,,2.9000000000000004,1.6,2.9000000000000004,,,,,,,,,,,,,,,,,,,,,,,,,,,,,,,,,,,119,1602.658368376,1,9,2,7,0,5,3,6,0,0,5,1637.0988929959994,None,1,9,2,7,0,5,3,6,,1640.5508868939996,None,1640.5508868939996,None,1640.5508868939996,None,1640.5508868939996,None,1640.5508868939996,None,1640.5508868939996,None,1640.5508868939996,None,1640.5508868939996,None,1639.2580558789996,1639.764558715,1639.2580558789996,1639.764558715,1639.2580558789996,1639.764558715,None,None,down,1.103074564999588,1640.5508868939996,None,None,None,x,0.16479865300061647,1641.697130177,None,1641.8836942129992,None,,89,38,46,,,,,102,23,2022_Sep_13_1400,templeton_exp2A_SD,2020.2.10,75.07379848212564,
,,,,,,,,,,,,,,,,,,,,,,120,0,120,0,,,,,,,,,,,,,,,,,,,,,,,,2.9000000000000004,1.6,2.9000000000000004,,,,,,,,,,,,,,,,,,,,,,,,,,,,,,,,,,,120,1609.8392117040003,4,5,2,7,3,6,0,8,0,0,3,1644.2828458779995,None,4,5,2,7,3,6,0,8,,1647.7482096939993,None,1647.7482096939993,None,1647.7482096939993,None,1647.7482096939993,None,1647.7482096939993,None,1647.7482096939993,None,1647.7482096939993,None,1647.7482096939993,None,1646.4420448909996,1646.9485034069994,1646.4420448909996,1646.9485034069994,1646.4420448909996,1646.9485034069994,None,None,left,1.8737303729994892,1647.7482096939993,None,None,None,z,0.202453830000195,1649.6674767219993,None,1649.8940111709999,None,,90,39,47,,,,,102,23,2022_Sep_13_1400,templeton_exp2A_SD,2020.2.10,75.07379848212564,
,,,,,,,,,,,,,,,,,,,,,,121,0,121,0,,,,,,,,,,,,,,,,,,,,,,,,2.9000000000000004,1.6,2.9000000000000004,,,,,,,,,,,,,,,,,,,,,,,,,,,,,,,,,,,121,1616.0271666529998,0,8,3,5,4,9,2,6,0,0,4,1650.4671001399993,None,0,8,3,5,4,9,2,6,,1653.9325257659993,None,1653.9325257659993,None,1653.9325257659993,None,1653.9325257659993,None,1653.9325257659993,None,1653.9325257659993,None,1653.9325257659993,None,1653.9325257659993,None,1652.626300981,1653.13282669,1652.626300981,1653.13282669,1652.626300981,1653.13282669,None,None,left,0.7694179210002403,1653.9325257659993,None,None,None,z,0.2204031090004719,1654.745539648,None,1654.985404901,None,,91,40,48,,,,,102,23,2022_Sep_13_1400,templeton_exp2A_SD,2020.2.10,75.07379848212564,
,,,,,,,,,,,,,,,,,,,,,,122,0,122,0,,,,,,,,,,,,,,,,,,,,,,,,2.9000000000000004,1.6,2.9000000000000004,,,,,,,,,,,,,,,,,,,,,,,,,,,,,,,,,,,122,1621.1182628220004,1,8,4,6,0,5,3,9,0,0,3,1655.5585251069997,None,1,8,4,6,0,5,3,9,,1659.0239021509997,None,1659.0239021509997,None,1659.0239021509997,None,1659.0239021509997,None,1659.0239021509997,None,1659.0239021509997,None,1659.0239021509997,None,1659.0239021509997,None,1657.7177597729997,1658.2241667129992,1657.7177597729997,1658.2241667129992,1657.7177597729997,1658.2241667129992,None,None,left,0.9420211579999886,1659.0239021509997,None,None,None,z,0.22772854000049847,1660.0102039199992,None,1660.2634252409998,None,,92,41,49,,,,,102,23,2022_Sep_13_1400,templeton_exp2A_SD,2020.2.10,75.07379848212564,
,,,,,,,,,,,,,,,,,,,,,,123,0,123,0,,,,,,,,,,,,,,,,,,,,,,,,2.9000000000000004,1.6,2.9000000000000004,,,,,,,,,,,,,,,,,,,,,,,,,,,,,,,,,,,123,1626.3967300989998,1,9,2,7,4,8,3,6,0,0,0,1660.8364844489997,None,1,9,2,7,4,8,3,6,,1664.3019946979994,None,1664.3019946979994,None,1664.3019946979994,None,1664.3019946979994,None,1664.3019946979994,None,1664.3019946979994,None,1664.3019946979994,None,1664.3019946979994,None,1662.9957624339995,1663.5022596919998,1662.9957624339995,1663.5022596919998,1662.9957624339995,1663.5022596919998,None,None,left,0.6879151570001341,1664.3019946979994,None,None,None,z,0.2350587209994046,1665.0348738969997,None,1665.2882212499999,None,,93,42,50,,,,,102,23,2022_Sep_13_1400,templeton_exp2A_SD,2020.2.10,75.07379848212564,
,,,,,,,,,,,,,,,,,,,,,,124,0,124,0,,,,,,,,,,,,,,,,,,,,,,,,2.3000000000000003,2.4000000000000004,2.9000000000000004,,,,,,,,,,,,,,,,,,,,,,,,,,,,,,,,,,,124,1631.4208700709996,4,5,3,7,1,9,2,6,1,0,2,1665.8613036029992,None,4,5,3,7,1,9,2,6,,1668.7135391129996,None,1668.7135391129996,None,1668.7135391129996,None,1668.7135391129996,None,1668.7135391129996,None,1668.7135391129996,None,1668.7135391129996,None,1668.7135391129996,None,1668.8200926459995,1669.3266378319995,1668.8200926459995,1669.3266378319995,1668.8200926459995,1669.3266378319995,None,None,left,0.9618330920002336,1668.8200926459995,None,None,None,z,0.21279605599920615,1669.8331272279993,None,1670.0596967319998,None,,94,42,50,,,,,102,23,2022_Sep_13_1400,templeton_exp2A_SD,2020.2.10,75.07379848212564,
,,,,,,,,,,,,,,,,,,,,,,125,0,125,0,,,,,,,,,,,,,,,,,,,,,,,,2.9000000000000004,1.6,2.9000000000000004,,,,,,,,,,,,,,,,,,,,,,,,,,,,,,,,,,,125,1636.1924480039997,3,9,1,5,2,8,4,7,0,0,6,1670.6328703899999,None,3,9,1,5,2,8,4,7,,1674.0982325489995,None,1674.0982325489995,None,1674.0982325489995,None,1674.0982325489995,None,1674.0982325489995,None,1674.0982325489995,None,1674.0982325489995,None,1674.0982325489995,None,1672.792061952,1673.2985056769994,1672.792061952,1673.2985056769994,1672.792061952,1673.2985056769994,None,None,left,0.5075840529998459,1674.0982325489995,None,None,None,z,0.18797846999950707,1674.6579235119998,None,1674.8711736059995,None,,95,43,51,,,,,102,23,2022_Sep_13_1400,templeton_exp2A_SD,2020.2.10,75.07379848212564,
,,,,,,,,,,,,,,,,,,,,,,126,0,126,0,,,,,,,,,,,,,,,,,,,,,,,,2.5,2.6,3.1,,,,,,,,,,,,,,,,,,,,,,,,,,,,,,,,,,,126,1641.0047817590003,4,6,2,8,3,7,0,5,1,0,2,1675.4443213669992,None,4,6,2,8,3,7,0,5,,1678.509851414,None,1678.509851414,None,1678.509851414,None,1678.509851414,None,1678.509851414,None,1678.509851414,None,1678.509851414,None,1678.509851414,None,1678.6030695539994,1679.109647673,1678.6030695539994,1679.109647673,1678.6030695539994,1679.109647673,None,None,left,0.8028528589993584,1678.6030695539994,None,None,None,z,0.18984854700011056,1679.4560778099994,None,1679.6693804249999,None,,96,43,51,,,,,102,23,2022_Sep_13_1400,templeton_exp2A_SD,2020.2.10,75.07379848212564,
