trials_2.thisRepN,trials_2.thisTrialN,trials_2.thisN,trials_2.thisIndex,Used_image_1,Used_image_2,Used_image_3,Used_image_4,Used_image_5,Used_image_6,Used_image_7,Used_image_8,Unused_image_1,Unused_image_2,trials.thisRepN,trials.thisTrialN,trials.thisN,trials.thisIndex,trials_4.thisRepN,trials_4.thisTrialN,trials_4.thisN,trials_4.thisIndex,trials_10.thisRepN,trials_10.thisTrialN,trials_10.thisN,trials_10.thisIndex,welcome.started,welcome.stopped,pointer_dot_0.started,pointer_dot_0.stopped,pointer_dot_1.started,pointer_dot_1.stopped,pointer_dot_2.started,pointer_dot_2.stopped,SD_image.started,SD_image.stopped,memDisplayOnTimePractice,mem_image_0_practice,mem_image_1_practice,mem_image_2_practice,mem_image_3_practice,mem_image_4_practice,mem_image_5_practice,mem_image_6_practice,mem_image_7_practice,retention_interval_practice,retro_0_post_1_practice,change_or_no_practice,cue_location_practice,mem_display_to_test_array_duration_s,mem_display_to_cue_duration_s,routine_duration_s,array_image_1f.started,array_image_1f.stopped,array_image_2f.started,array_image_2f.stopped,array_image_3f.started,array_image_3f.stopped,array_image_4f.started,array_image_4f.stopped,array_image_5f.started,array_image_5f.stopped,array_image_6f.started,array_image_6f.stopped,array_image_7f.started,array_image_7f.stopped,array_image_8f.started,array_image_8f.stopped,pointer_dot_0b.started,pointer_dot_0b.stopped,pointer_dot_1b.started,pointer_dot_1b.stopped,pointer_dot_2b.started,pointer_dot_2b.stopped,sd_practice_resp.keys,sd_practice_resp.rt,sd_practice_resp.started,sd_practice_resp.stopped,text_10.started,text_10.stopped,conf_practice_resp.keys,conf_practice_resp.rt,conf_practice_resp.started,conf_practice_resp.stopped,image.started,image.stopped,training_trial_index,memDisplayOnTimeTraining,mem_image_0_training,mem_image_1_training,mem_image_2_training,mem_image_3_training,mem_image_4_training,mem_image_5_training,mem_image_6_training,mem_image_7_training,retro_0_post_1_training,change_or_no_training,cue_location_training,array_image_1l.started,array_image_1l.stopped,test_image_0_training,test_image_1_training,test_image_2_training,test_image_3_training,test_image_4_training,test_image_5_training,test_image_6_training,test_image_7_training,consecutive_correct_retro_short,array_image_1m.started,array_image_1m.stopped,array_image_2m.started,array_image_2m.stopped,array_image_3m.started,array_image_3m.stopped,array_image_4m.started,array_image_4m.stopped,array_image_5m.started,array_image_5m.stopped,array_image_6m.started,array_image_6m.stopped,array_image_7m.started,array_image_7m.stopped,array_image_8m.started,array_image_8m.stopped,pointer_dot_0d.started,pointer_dot_0d.stopped,pointer_dot_1d.started,pointer_dot_1d.stopped,pointer_dot_2d.started,pointer_dot_2d.stopped,reminder_training.started,reminder_training.stopped,sd_training_resp.keys,sd_training_resp.rt,sd_training_resp.started,sd_training_resp.stopped,text_15.started,text_15.stopped,conf_training_resp.keys,conf_training_resp.rt,conf_training_resp.started,conf_training_resp.stopped,text.started,text.stopped,short_interval_training_finished,training_trial_index_long_this_block,correct_retro_long_this_block,retro_trials_long_this_block,long_interval_block_finished,long_block_retro_acc,reached_criterion,run_out_of_trials,participant,mapping,date,expName,psychopyVersion,frameRate,
,,,,,,,,,,,,,,0,0,0,0,,,,,,,,,94.1635576650001,None,148.74290214199982,None,148.74290214199982,None,148.74290214199982,None,249.19821054700014,None,270.343564795,4,8,1,5,2,7,0,9,1.6,1,0,3,1.5,1.6,2.1,366.60700053400024,None,366.60700053400024,None,366.60700053400024,None,366.60700053400024,None,366.60700053400024,None,366.60700053400024,None,366.60700053400024,None,366.60700053400024,None,366.7135893569998,367.2201258270002,366.7135893569998,367.2201258270002,366.7135893569998,367.2201258270002,left,3.0147400030000426,366.7135893569998,None,369.80583823200004,None,z,7.834533269000076,369.80583823200004,None,369.80583823200004,None,,,,,,,,,,,,,,,,,,,,,,,,,,,,,,,,,,,,,,,,,,,,,,,,,,,,,,,,,,,,,,,,,,,,,104,23,2022_Sep_12_1104,templeton_exp2A_SD,2020.2.10,37.51258505026819,
,,,,,,,,,,,,,,1,0,1,0,,,,,,,,,,,,,,,,,,,300.9889753990001,3,5,2,8,0,7,4,9,1.6,1,0,5,1.5,1.6,2.1,397.2220356600001,None,397.2220356600001,None,397.2220356600001,None,397.2220356600001,None,397.2220356600001,None,397.2220356600001,None,397.2220356600001,None,397.2220356600001,None,397.32874070900016,397.83516499899997,397.32874070900016,397.83516499899997,397.32874070900016,397.83516499899997,left,1.215641379000317,397.32874070900016,None,398.59489185600023,None,z,0.3495011129998602,398.59489185600023,None,398.59489185600023,None,,,,,,,,,,,,,,,,,,,,,,,,,,,,,,,,,,,,,,,,,,,,,,,,,,,,,,,,,,,,,,,,,,,,,104,23,2022_Sep_12_1104,templeton_exp2A_SD,2020.2.10,37.51258505026819,
,,,,,,,,,,,,,,2,0,2,0,,,,,,,,,,,,,,,,,,,306.85295926300023,3,8,2,5,0,7,4,6,1.6,0,1,7,2.9000000000000004,1.6,2.9000000000000004,404.499378731,None,404.499378731,None,404.499378731,None,404.499378731,None,404.499378731,None,404.499378731,None,404.499378731,None,404.499378731,None,403.19312037500003,403.69966481300025,403.19312037500003,403.69966481300025,403.19312037500003,403.69966481300025,left,3.0209932309999203,404.499378731,None,407.56486737700016,None,z,0.5475138730002982,407.56486737700016,None,407.56486737700016,None,,,,,,,,,,,,,,,,,,,,,,,,,,,,,,,,,,,,,,,,,,,,,,,,,,,,,,,,,,,,,,,,,,,,,104,23,2022_Sep_12_1104,templeton_exp2A_SD,2020.2.10,37.51258505026819,
,,,,,,,,,,,,,,3,0,3,0,,,,,,,,,,,,,,,,,,,316.035305076,0,5,2,6,1,7,3,9,1.6,1,1,1,1.5,1.6,2.1,412.2696835319998,None,412.2696835319998,None,412.2696835319998,None,412.2696835319998,None,412.2696835319998,None,412.2696835319998,None,412.2696835319998,None,412.2696835319998,None,412.37635279200003,412.8828142030002,412.37635279200003,412.8828142030002,412.37635279200003,412.8828142030002,down,1.4480147899998883,412.37635279200003,None,413.86914927199996,None,z,0.731234688999848,413.86914927199996,None,413.86914927199996,None,,,,,,,,,,,,,,,,,,,,,,,,,,,,,,,,,,,,,,,,,,,,,,,,,,,,,,,,,,,,,,,,,,,,,104,23,2022_Sep_12_1104,templeton_exp2A_SD,2020.2.10,37.51258505026819,
,,,,,,,,,,,,,,4,0,4,0,,,,,,,,,,,,,,,,,,,321.82127057000025,1,7,0,8,4,6,3,9,1.6,0,0,0,2.9000000000000004,1.6,2.9000000000000004,419.46703588399987,None,419.46703588399987,None,419.46703588399987,None,419.46703588399987,None,419.46703588399987,None,419.46703588399987,None,419.46703588399987,None,419.46703588399987,None,418.16086507599994,418.66729691499995,418.16086507599994,418.66729691499995,418.16086507599994,418.66729691499995,left,0.9573261389996333,419.46703588399987,None,420.4531483139999,None,z,0.4672253680000722,420.4531483139999,None,420.4531483139999,None,,,,,,,,,,,,,,,,,,,,,,,,,,,,,,,,,,,,,,,,,,,,,,,,,,,,,,,,,,,,,,,,,,,,,104,23,2022_Sep_12_1104,templeton_exp2A_SD,2020.2.10,37.51258505026819,
,,,,,,,,,,,,,,5,0,5,0,,,,,,,,,,,,,,,,,,,327.631676427,0,9,1,7,3,8,2,5,1.6,0,1,0,2.9000000000000004,1.6,2.9000000000000004,425.2781549199999,None,425.2781549199999,None,425.2781549199999,None,425.2781549199999,None,425.2781549199999,None,425.2781549199999,None,425.2781549199999,None,425.2781549199999,None,423.97189112800015,424.4784587570002,423.97189112800015,424.4784587570002,423.97189112800015,424.4784587570002,down,2.3302030020004167,425.2781549199999,None,427.65052302000004,None,z,0.41386295700021947,427.65052302000004,None,427.65052302000004,None,,,,,,,,,,,,,,,,,,,,,,,,,,,,,,,,,,,,,,,,,,,,,,,,,,,,,,,,,,,,,,,,,,,,,104,23,2022_Sep_12_1104,templeton_exp2A_SD,2020.2.10,37.51258505026819,
,,,,,,,,,,,,,,6,0,6,0,,,,,,,,,,,,,,,,,,,334.66810219100034,2,9,1,5,0,6,3,7,1.6,1,1,3,1.5,1.6,2.1,430.90265997100005,None,430.90265997100005,None,430.90265997100005,None,430.90265997100005,None,430.90265997100005,None,430.90265997100005,None,430.90265997100005,None,430.90265997100005,None,431.00921475799987,431.51581369099995,431.00921475799987,431.51581369099995,431.00921475799987,431.51581369099995,down,3.975155298000118,431.00921475799987,None,435.03448430000026,None,z,0.4298861379998016,435.03448430000026,None,435.03448430000026,None,,,,,,,,,,,,,,,,,,,,,,,,,,,,,,,,,,,,,,,,,,,,,,,,,,,,,,,,,,,,,,,,,,,,,104,23,2022_Sep_12_1104,templeton_exp2A_SD,2020.2.10,37.51258505026819,
,,,,,,,,,,,,,,,,,,,,,,0,0,0,0,,,,,,,,,,,,,,,,,,,,,,,,2.05,0.75,2.05,,,,,,,,,,,,,,,,,,,,,,,,,,,,,,,,,,,0,368.3302611580002,0,6,3,5,1,9,2,7,0,0,3,462.5306685639998,None,0,6,3,5,1,9,2,7,1,465.143047993,None,465.143047993,None,465.143047993,None,465.143047993,None,465.143047993,None,465.143047993,None,465.143047993,None,465.143047993,None,463.85015696300025,464.35669026799997,463.85015696300025,464.35669026799997,463.85015696300025,464.35669026799997,None,None,left,1.1772730839998076,465.143047993,None,None,None,z,2.535143283999787,466.4092314300001,None,468.9948997669999,None,,,,,,,,,104,23,2022_Sep_12_1104,templeton_exp2A_SD,2020.2.10,37.51258505026819,
,,,,,,,,,,,,,,,,,,,,,,1,0,1,0,,,,,,,,,,,,,,,,,,,,,,,,2.05,0.75,2.05,,,,,,,,,,,,,,,,,,,,,,,,,,,,,,,,,,,1,375.37714373400013,4,6,1,7,2,9,0,5,0,0,4,469.568046119,None,4,6,1,7,2,9,0,5,2,472.167063549,None,472.167063549,None,472.167063549,None,472.167063549,None,472.167063549,None,472.167063549,None,472.167063549,None,472.167063549,None,470.8608702360002,471.36736049399997,470.8608702360002,471.36736049399997,470.8608702360002,471.36736049399997,None,None,left,1.1773015500002657,472.167063549,None,None,None,z,0.5244481370000358,473.41993872500007,None,473.9796961070001,None,,,,,,,,,104,23,2022_Sep_12_1104,templeton_exp2A_SD,2020.2.10,37.51258505026819,
,,,,,,,,,,,,,,,,,,,,,,2,0,2,0,,,,,,,,,,,,,,,,,,,,,,,,0.65,0.75,1.25,,,,,,,,,,,,,,,,,,,,,,,,,,,,,,,,,,,2,380.360809925,1,9,4,6,2,7,3,5,1,1,2,474.5527490640002,None,1,9,0,6,2,7,3,5,2,475.7657057199999,None,475.7657057199999,None,475.7657057199999,None,475.7657057199999,None,475.7657057199999,None,475.7657057199999,None,475.7657057199999,None,475.7657057199999,None,475.84567439400007,476.35214964099987,475.84567439400007,476.35214964099987,475.84567439400007,476.35214964099987,None,None,down,1.114692880000348,475.84567439400007,None,None,None,z,2.173873418000312,477.018514291,None,479.2310518029999,None,,,,,,,,,104,23,2022_Sep_12_1104,templeton_exp2A_SD,2020.2.10,37.51258505026819,
,,,,,,,,,,,,,,,,,,,,,,3,0,3,0,,,,,,,,,,,,,,,,,,,,,,,,0.65,0.75,1.25,,,,,,,,,,,,,,,,,,,,,,,,,,,,,,,,,,,3,385.6137170520001,0,9,1,8,2,6,3,7,1,0,6,479.80413803400006,None,0,9,1,8,2,6,3,7,2,481.016990137,None,481.016990137,None,481.016990137,None,481.016990137,None,481.016990137,None,481.016990137,None,481.016990137,None,481.016990137,None,481.1236649560001,481.6301461090002,481.1236649560001,481.6301461090002,481.1236649560001,481.6301461090002,None,None,left,1.076703230000021,481.1236649560001,None,None,None,z,0.7945278659999531,482.269859087,None,483.0962462440002,None,,,,,,,,,104,23,2022_Sep_12_1104,templeton_exp2A_SD,2020.2.10,37.51258505026819,
,,,,,,,,,,,,,,,,,,,,,,4,0,4,0,,,,,,,,,,,,,,,,,,,,,,,,2.05,0.75,2.05,,,,,,,,,,,,,,,,,,,,,,,,,,,,,,,,,,,4,389.4787758800003,2,7,4,5,0,8,3,6,0,1,0,483.6692974890002,None,1,7,4,5,0,8,3,6,0,486.2683239590001,None,486.2683239590001,None,486.2683239590001,None,486.2683239590001,None,486.2683239590001,None,486.2683239590001,None,486.2683239590001,None,486.2683239590001,None,484.9622066810002,485.46867410999994,484.9622066810002,485.46867410999994,484.9622066810002,485.46867410999994,None,None,left,0.6280479249999189,486.2683239590001,None,None,None,z,1.542915525999888,486.9614623570001,None,488.53420782600006,None,,,,,,,,,104,23,2022_Sep_12_1104,templeton_exp2A_SD,2020.2.10,37.51258505026819,
,,,,,,,,,,,,,,,,,,,,,,5,0,5,0,,,,,,,,,,,,,,,,,,,,,,,,0.65,0.75,1.25,,,,,,,,,,,,,,,,,,,,,,,,,,,,,,,,,,,5,394.9153631250001,1,6,3,9,4,5,2,7,1,0,5,489.1072648720001,None,1,6,3,9,4,5,2,7,0,490.3201028620001,None,490.3201028620001,None,490.3201028620001,None,490.3201028620001,None,490.3201028620001,None,490.3201028620001,None,490.3201028620001,None,490.3201028620001,None,490.4001705380001,490.90654576399993,490.4001705380001,490.90654576399993,490.4001705380001,490.90654576399993,None,None,left,0.7521974790001877,490.4001705380001,None,None,None,z,1.3419537360000504,491.22643205600025,None,492.612654778,None,,,,,,,,,104,23,2022_Sep_12_1104,templeton_exp2A_SD,2020.2.10,37.51258505026819,
,,,,,,,,,,,,,,,,,,,,,,6,0,6,0,,,,,,,,,,,,,,,,,,,,,,,,0.65,0.75,1.25,,,,,,,,,,,,,,,,,,,,,,,,,,,,,,,,,,,6,398.9952004310003,3,8,4,5,1,7,0,9,1,1,0,493.1857250950002,None,2,8,4,5,1,7,0,9,0,494.39864402500007,None,494.39864402500007,None,494.39864402500007,None,494.39864402500007,None,494.39864402500007,None,494.39864402500007,None,494.39864402500007,None,494.39864402500007,None,494.47860995500014,494.9850422630002,494.47860995500014,494.9850422630002,494.47860995500014,494.9850422630002,None,None,down,0.8817682760000025,494.47860995500014,None,None,None,z,2.146173154999815,495.438217074,None,497.62404478100007,None,,,,,,,,,104,23,2022_Sep_12_1104,templeton_exp2A_SD,2020.2.10,37.51258505026819,
,,,,,,,,,,,,,,,,,,,,,,7,0,7,0,,,,,,,,,,,,,,,,,,,,,,,,0.65,0.75,1.25,,,,,,,,,,,,,,,,,,,,,,,,,,,,,,,,,,,7,404.0062833230004,2,8,1,9,4,5,3,7,1,0,7,498.197152019,None,2,8,1,9,4,5,3,7,0,499.4100685120002,None,499.4100685120002,None,499.4100685120002,None,499.4100685120002,None,499.4100685120002,None,499.4100685120002,None,499.4100685120002,None,499.4100685120002,None,499.4899679800001,499.99652557399986,499.4899679800001,499.99652557399986,499.4899679800001,499.99652557399986,None,None,left,0.7743052920000082,499.4899679800001,None,None,None,z,0.5213359809999929,500.343049179,None,500.9027603129998,None,,,,,,,,,104,23,2022_Sep_12_1104,templeton_exp2A_SD,2020.2.10,37.51258505026819,
,,,,,,,,,,,,,,,,,,,,,,8,0,8,0,,,,,,,,,,,,,,,,,,,,,,,,2.05,0.75,2.05,,,,,,,,,,,,,,,,,,,,,,,,,,,,,,,,,,,8,407.2841790550001,0,5,3,9,4,6,2,7,0,1,1,501.47595195400027,None,0,1,3,9,4,6,2,7,0,504.0749635870002,None,504.0749635870002,None,504.0749635870002,None,504.0749635870002,None,504.0749635870002,None,504.0749635870002,None,504.0749635870002,None,504.0749635870002,None,502.7688297750001,503.2752819269999,502.7688297750001,503.2752819269999,502.7688297750001,503.2752819269999,None,None,left,0.5574100969997744,504.0749635870002,None,None,None,c,1.1362994470000558,504.6880888569999,None,505.8609651319998,None,,,,,,,,,104,23,2022_Sep_12_1104,templeton_exp2A_SD,2020.2.10,37.51258505026819,
,,,,,,,,,,,,,,,,,,,,,,9,0,9,0,,,,,,,,,,,,,,,,,,,,,,,,0.65,0.75,1.25,,,,,,,,,,,,,,,,,,,,,,,,,,,,,,,,,,,9,412.24342651300003,0,8,2,7,3,5,1,9,1,0,3,506.434088169,None,0,8,2,7,3,5,1,9,0,507.6469425790001,None,507.6469425790001,None,507.6469425790001,None,507.6469425790001,None,507.6469425790001,None,507.6469425790001,None,507.6469425790001,None,507.6469425790001,None,507.72687738000013,508.23329286900025,507.72687738000013,508.23329286900025,507.72687738000013,508.23329286900025,None,None,left,1.9935262139997576,507.72687738000013,None,None,None,x,0.43690049599990743,509.779468961,None,510.25929573600024,None,,,,,,,,,104,23,2022_Sep_12_1104,templeton_exp2A_SD,2020.2.10,37.51258505026819,
,,,,,,,,,,,,,,,,,,,,,,10,0,10,0,,,,,,,,,,,,,,,,,,,,,,,,2.05,0.75,2.05,,,,,,,,,,,,,,,,,,,,,,,,,,,,,,,,,,,10,416.64161003100025,2,6,1,5,3,8,0,9,0,1,7,510.83240817900014,None,2,6,1,5,3,8,0,4,1,513.4314217420001,None,513.4314217420001,None,513.4314217420001,None,513.4314217420001,None,513.4314217420001,None,513.4314217420001,None,513.4314217420001,None,513.4314217420001,None,512.1519435119999,512.658340507,512.1519435119999,512.658340507,512.1519435119999,512.658340507,None,None,down,0.8249410630000966,513.4314217420001,None,None,None,z,0.4412775759997203,514.3111088790001,None,514.7908980699999,None,,,,,,,,,104,23,2022_Sep_12_1104,templeton_exp2A_SD,2020.2.10,37.51258505026819,
,,,,,,,,,,,,,,,,,,,,,,11,0,11,0,,,,,,,,,,,,,,,,,,,,,,,,0.65,0.75,1.25,,,,,,,,,,,,,,,,,,,,,,,,,,,,,,,,,,,11,421.17216632200007,4,6,1,9,3,7,2,5,1,0,5,515.3640255250002,None,4,6,1,9,3,7,2,5,1,516.5768981790002,None,516.5768981790002,None,516.5768981790002,None,516.5768981790002,None,516.5768981790002,None,516.5768981790002,None,516.5768981790002,None,516.5768981790002,None,516.656836915,517.1633026160002,516.656836915,517.1633026160002,516.656836915,517.1633026160002,None,None,left,3.1675349039996945,516.656836915,None,None,None,z,1.1180674819997876,519.8823201,None,521.0284175000002,None,,,,,,,,,104,23,2022_Sep_12_1104,templeton_exp2A_SD,2020.2.10,37.51258505026819,
,,,,,,,,,,,,,,,,,,,,,,12,0,12,0,,,,,,,,,,,,,,,,,,,,,,,,2.05,0.75,2.05,,,,,,,,,,,,,,,,,,,,,,,,,,,,,,,,,,,12,427.4105527730003,1,7,2,6,4,8,0,5,0,0,5,521.601586153,None,1,7,2,6,4,8,0,5,2,524.2006074599999,None,524.2006074599999,None,524.2006074599999,None,524.2006074599999,None,524.2006074599999,None,524.2006074599999,None,524.2006074599999,None,524.2006074599999,None,522.9211218330001,523.4276284110001,522.9211218330001,523.4276284110001,522.9211218330001,523.4276284110001,None,None,left,0.7437642700001561,524.2006074599999,None,None,None,z,0.30399504400020305,525.0003835110001,None,525.346925366,None,,,,,,,,,104,23,2022_Sep_12_1104,templeton_exp2A_SD,2020.2.10,37.51258505026819,
,,,,,,,,,,,,,,,,,,,,,,13,0,13,0,,,,,,,,,,,,,,,,,,,,,,,,2.05,0.75,2.05,,,,,,,,,,,,,,,,,,,,,,,,,,,,,,,,,,,13,431.72822677800013,4,7,2,5,1,9,0,6,0,0,0,525.9200463030002,None,4,7,2,5,1,9,0,6,3,528.518972068,None,528.518972068,None,528.518972068,None,528.518972068,None,528.518972068,None,528.518972068,None,528.518972068,None,528.518972068,None,527.2128743419999,527.7193079550002,527.2128743419999,527.7193079550002,527.2128743419999,527.7193079550002,None,None,left,0.5134248629997273,528.518972068,None,None,None,z,0.3269933830001719,529.1053885420001,None,529.478682211,None,,,,,,,,,104,23,2022_Sep_12_1104,templeton_exp2A_SD,2020.2.10,37.51258505026819,
,,,,,,,,,,,,,,,,,,,,,,14,0,14,0,,,,,,,,,,,,,,,,,,,,,,,,2.05,0.75,2.05,,,,,,,,,,,,,,,,,,,,,,,,,,,,,,,,,,,14,435.861014438,1,7,2,8,4,6,3,5,0,0,2,530.0518143990002,None,1,7,2,8,4,6,3,5,4,532.650752946,None,532.650752946,None,532.650752946,None,532.650752946,None,532.650752946,None,532.650752946,None,532.650752946,None,532.650752946,None,531.3446264230001,531.8511325200002,531.3446264230001,531.8511325200002,531.3446264230001,531.8511325200002,None,None,left,1.1256084419997023,532.650752946,None,None,None,z,0.30200773899969136,533.8503778740001,None,534.1968846340001,None,,,,,,,,,104,23,2022_Sep_12_1104,templeton_exp2A_SD,2020.2.10,37.51258505026819,
,,,,,,,,,,,,,,,,,,,,,,15,0,15,0,,,,,,,,,,,,,,,,,,,,,,,,2.05,0.75,2.05,,,,,,,,,,,,,,,,,,,,,,,,,,,,,,,,,,,15,519.1717959400003,3,7,4,5,2,9,0,6,0,1,4,613.3668805980001,None,3,7,4,5,1,9,0,6,5,615.9659138490001,None,615.9659138490001,None,615.9659138490001,None,615.9659138490001,None,615.9659138490001,None,615.9659138490001,None,615.9659138490001,None,615.9659138490001,None,614.6597024769999,615.1662038899999,614.6597024769999,615.1662038899999,614.6597024769999,615.1662038899999,None,None,down,0.9224147109998739,615.9659138490001,None,None,None,z,0.9442495600001166,616.9521339440003,None,617.9384459349999,None,,,,,,,,,104,23,2022_Sep_12_1104,templeton_exp2A_SD,2020.2.10,37.51258505026819,
,,,,,,,,,,,,,,,,,,,,,,16,0,16,0,,,,,,,,,,,,,,,,,,,,,,,,2.05,0.75,2.05,,,,,,,,,,,,,,,,,,,,,,,,,,,,,,,,,,,16,524.3199894850004,1,9,2,7,0,6,4,5,0,1,1,618.511601399,None,1,3,2,7,0,6,4,5,6,621.1106314829999,None,621.1106314829999,None,621.1106314829999,None,621.1106314829999,None,621.1106314829999,None,621.1106314829999,None,621.1106314829999,None,621.1106314829999,None,619.80449482,620.3109329140002,619.80449482,620.3109329140002,619.80449482,620.3109329140002,None,None,down,0.8577295069999309,621.1106314829999,None,None,None,z,0.284870021000188,622.0435213410001,None,622.3634828240001,None,,,,,,,,,104,23,2022_Sep_12_1104,templeton_exp2A_SD,2020.2.10,37.51258505026819,
,,,,,,,,,,,,,,,,,,,,,,17,0,17,0,,,,,,,,,,,,,,,,,,,,,,,,2.05,0.75,2.05,,,,,,,,,,,,,,,,,,,,,,,,,,,,,,,,,,,17,528.745896334,1,6,0,9,4,7,2,8,0,1,6,622.9365303740001,None,1,6,0,9,4,7,3,8,7,625.5356366810001,None,625.5356366810001,None,625.5356366810001,None,625.5356366810001,None,625.5356366810001,None,625.5356366810001,None,625.5356366810001,None,625.5356366810001,None,624.2560553650001,624.7625675509998,624.2560553650001,624.7625675509998,624.2560553650001,624.7625675509998,None,None,down,0.608735802999945,625.5356366810001,None,None,None,z,0.32639129700010017,626.2019911900002,None,626.575165841,None,,,,,,,,,104,23,2022_Sep_12_1104,templeton_exp2A_SD,2020.2.10,37.51258505026819,
,,,,,,,,,,,,,,,,,,,,,,18,0,18,0,,,,,,,,,,,,,,,,,,,,,,,,2.05,0.75,2.05,,,,,,,,,,,,,,,,,,,,,,,,,,,,,,,,,,,18,532.9570289850003,3,8,2,6,0,9,4,5,0,0,4,627.1483341040002,None,3,8,2,6,0,9,4,5,8,629.7473540320002,None,629.7473540320002,None,629.7473540320002,None,629.7473540320002,None,629.7473540320002,None,629.7473540320002,None,629.7473540320002,None,629.7473540320002,None,628.4411780169999,628.9475811930001,628.4411780169999,628.9475811930001,628.4411780169999,628.9475811930001,None,None,left,0.7970217179999963,629.7473540320002,None,None,None,z,0.2560179560000506,630.6003597469999,None,630.893587566,None,1,,,,,,,,104,23,2022_Sep_12_1104,templeton_exp2A_SD,2020.2.10,37.51258505026819,
,,,,,,,,,,,,,,,,,,,,,,19,0,19,0,,,,,,,,,,,,,,,,,,,,,,,,2.9000000000000004,1.6,2.9000000000000004,,,,,,,,,,,,,,,,,,,,,,,,,,,,,,,,,,,19,537.2756181500004,0,8,3,5,2,6,4,7,0,1,5,631.4666478670001,None,0,8,3,5,2,1,4,7,,634.918681359,None,634.918681359,None,634.918681359,None,634.918681359,None,634.918681359,None,634.918681359,None,634.918681359,None,634.918681359,None,633.6125497170001,634.119043613,633.6125497170001,634.119043613,633.6125497170001,634.119043613,None,None,left,1.1056832099998246,634.918681359,None,None,None,z,0.34081532199979847,636.0915691989999,None,636.4647997440002,None,,0,0,1,,,,,104,23,2022_Sep_12_1104,templeton_exp2A_SD,2020.2.10,37.51258505026819,
,,,,,,,,,,,,,,,,,,,,,,20,0,20,0,,,,,,,,,,,,,,,,,,,,,,,,2.9000000000000004,1.6,2.9000000000000004,,,,,,,,,,,,,,,,,,,,,,,,,,,,,,,,,,,20,542.8461124180003,4,7,0,6,2,5,1,9,0,0,0,637.0378858710001,None,4,7,0,6,2,5,1,9,,640.48991458,None,640.48991458,None,640.48991458,None,640.48991458,None,640.48991458,None,640.48991458,None,640.48991458,None,640.48991458,None,639.1837686670001,639.6902097530001,639.1837686670001,639.6902097530001,639.1837686670001,639.6902097530001,None,None,left,0.3984146040002088,640.48991458,None,None,None,z,0.4252688340002351,640.9431031889999,None,641.396232655,None,,1,1,2,,,,,104,23,2022_Sep_12_1104,templeton_exp2A_SD,2020.2.10,37.51258505026819,
,,,,,,,,,,,,,,,,,,,,,,21,0,21,0,,,,,,,,,,,,,,,,,,,,,,,,2.7,2.8000000000000003,3.3000000000000003,,,,,,,,,,,,,,,,,,,,,,,,,,,,,,,,,,,21,547.7789744660004,0,6,3,5,1,7,4,8,1,1,3,641.9693531910002,None,0,6,3,2,1,7,4,8,,645.2348126239999,None,645.2348126239999,None,645.2348126239999,None,645.2348126239999,None,645.2348126239999,None,645.2348126239999,None,645.2348126239999,None,645.2348126239999,None,645.3414318069999,645.8479109660002,645.3414318069999,645.8479109660002,645.3414318069999,645.8479109660002,None,None,down,1.8668458770002871,645.3414318069999,None,None,None,z,0.29707641199956925,647.2872995130001,None,647.6338616769999,None,,2,1,2,,,,,104,23,2022_Sep_12_1104,templeton_exp2A_SD,2020.2.10,37.51258505026819,
,,,,,,,,,,,,,,,,,,,,,,22,0,22,0,,,,,,,,,,,,,,,,,,,,,,,,2.5,2.6,3.1,,,,,,,,,,,,,,,,,,,,,,,,,,,,,,,,,,,22,554.0153486810004,3,9,0,6,2,7,4,5,1,1,5,648.2069902120002,None,3,9,0,6,2,1,4,5,,651.259198703,None,651.259198703,None,651.259198703,None,651.259198703,None,651.259198703,None,651.259198703,None,651.259198703,None,651.259198703,None,651.3658365649999,651.8722771080002,651.3658365649999,651.8722771080002,651.3658365649999,651.8722771080002,None,None,down,1.4825421969999297,651.3658365649999,None,None,None,z,0.3364793539999482,652.9119029889998,None,653.2850352179998,None,,3,1,2,,,,,104,23,2022_Sep_12_1104,templeton_exp2A_SD,2020.2.10,37.51258505026819,
,,,,,,,,,,,,,,,,,,,,,,23,0,23,0,,,,,,,,,,,,,,,,,,,,,,,,2.9000000000000004,1.6,2.9000000000000004,,,,,,,,,,,,,,,,,,,,,,,,,,,,,,,,,,,23,559.6678867570004,2,9,0,8,3,7,1,6,0,0,0,653.8581408350001,None,2,9,0,8,3,7,1,6,,657.3102324830002,None,657.3102324830002,None,657.3102324830002,None,657.3102324830002,None,657.3102324830002,None,657.3102324830002,None,657.3102324830002,None,657.3102324830002,None,656.0040703099999,656.5105508739998,656.0040703099999,656.5105508739998,656.0040703099999,656.5105508739998,None,None,left,0.5701435490000222,657.3102324830002,None,None,None,z,0.6503964429998632,657.9499891209998,None,658.6430396599999,None,,4,2,3,,,,,104,23,2022_Sep_12_1104,templeton_exp2A_SD,2020.2.10,37.51258505026819,
,,,,,,,,,,,,,,,,,,,,,,24,0,24,0,,,,,,,,,,,,,,,,,,,,,,,,2.9000000000000004,1.6,2.9000000000000004,,,,,,,,,,,,,,,,,,,,,,,,,,,,,,,,,,,24,565.0255600400001,1,6,0,5,3,8,4,7,0,1,3,659.216177369,None,1,6,0,2,3,8,4,7,,662.6682442709998,None,662.6682442709998,None,662.6682442709998,None,662.6682442709998,None,662.6682442709998,None,662.6682442709998,None,662.6682442709998,None,662.6682442709998,None,661.388659449,661.8951767029998,661.388659449,661.8951767029998,661.388659449,661.8951767029998,None,None,down,1.0360581699997056,662.6682442709998,None,None,None,z,0.3752202169998782,663.761122375,None,664.1875631419998,None,,5,3,4,,,,,104,23,2022_Sep_12_1104,templeton_exp2A_SD,2020.2.10,37.51258505026819,
,,,,,,,,,,,,,,,,,,,,,,25,0,25,0,,,,,,,,,,,,,,,,,,,,,,,,2.9000000000000004,1.6,2.9000000000000004,,,,,,,,,,,,,,,,,,,,,,,,,,,,,,,,,,,25,570.5696889540004,2,6,4,8,0,5,1,7,0,1,4,664.7607373420001,None,2,6,4,8,3,5,1,7,,668.212771256,None,668.212771256,None,668.212771256,None,668.212771256,None,668.212771256,None,668.212771256,None,668.212771256,None,668.212771256,None,666.9065910550003,667.4130473660002,666.9065910550003,667.4130473660002,666.9065910550003,667.4130473660002,None,None,down,1.2835923699999512,668.212771256,None,None,None,z,0.6601714319999701,669.5722149379999,None,670.265323952,None,,6,4,5,,,,,104,23,2022_Sep_12_1104,templeton_exp2A_SD,2020.2.10,37.51258505026819,
,,,,,,,,,,,,,,,,,,,,,,26,0,26,0,,,,,,,,,,,,,,,,,,,,,,,,2.9000000000000004,1.6,2.9000000000000004,,,,,,,,,,,,,,,,,,,,,,,,,,,,,,,,,,,26,576.6481018600002,0,8,3,7,1,6,4,5,0,0,6,670.8383742450001,None,0,8,3,7,1,6,4,5,,674.2904662639999,None,674.2904662639999,None,674.2904662639999,None,674.2904662639999,None,674.2904662639999,None,674.2904662639999,None,674.2904662639999,None,674.2904662639999,None,672.984313721,673.490744237,672.984313721,673.490744237,672.984313721,673.490744237,None,None,left,0.9018925459999991,674.2904662639999,None,None,None,z,0.39026885600014793,675.2501017509999,None,675.6765808499999,None,,7,5,6,,,,,104,23,2022_Sep_12_1104,templeton_exp2A_SD,2020.2.10,37.51258505026819,
,,,,,,,,,,,,,,,,,,,,,,27,0,27,0,,,,,,,,,,,,,,,,,,,,,,,,1.5,1.6,2.1,,,,,,,,,,,,,,,,,,,,,,,,,,,,,,,,,,,27,582.0597671160003,1,8,3,7,2,6,0,9,1,0,6,676.2496997460003,None,1,8,3,7,2,6,0,9,,678.315617362,None,678.315617362,None,678.315617362,None,678.315617362,None,678.315617362,None,678.315617362,None,678.315617362,None,678.315617362,None,678.3955908930002,678.9019820100002,678.3955908930002,678.9019820100002,678.3955908930002,678.9019820100002,None,None,left,1.1487409510000361,678.3955908930002,None,None,None,z,0.2986721329998545,679.6217050109999,None,679.9682443249999,None,,8,5,6,,,,,104,23,2022_Sep_12_1104,templeton_exp2A_SD,2020.2.10,37.51258505026819,
,,,,,,,,,,,,,,,,,,,,,,28,0,28,0,,,,,,,,,,,,,,,,,,,,,,,,2.9000000000000004,1.6,2.9000000000000004,,,,,,,,,,,,,,,,,,,,,,,,,,,,,,,,,,,28,586.3505277970003,4,7,1,9,3,8,2,6,0,0,2,680.541399744,None,4,7,1,9,3,8,2,6,,683.9934549509999,None,683.9934549509999,None,683.9934549509999,None,683.9934549509999,None,683.9934549509999,None,683.9934549509999,None,683.9934549509999,None,683.9934549509999,None,682.687217403,683.1936376670001,682.687217403,683.1936376670001,682.687217403,683.1936376670001,None,None,down,1.558834743999796,683.9934549509999,None,None,None,x,0.31690434300026027,685.6194826860001,None,685.9660092240001,None,,9,5,7,,,,,104,23,2022_Sep_12_1104,templeton_exp2A_SD,2020.2.10,37.51258505026819,
,,,,,,,,,,,,,,,,,,,,,,29,0,29,0,,,,,,,,,,,,,,,,,,,,,,,,2.9000000000000004,1.6,2.9000000000000004,,,,,,,,,,,,,,,,,,,,,,,,,,,,,,,,,,,29,592.3470954870004,2,7,3,6,0,9,4,5,0,0,3,686.539094496,None,2,7,3,6,0,9,4,5,,689.9911443390001,None,689.9911443390001,None,689.9911443390001,None,689.9911443390001,None,689.9911443390001,None,689.9911443390001,None,689.9911443390001,None,689.9911443390001,None,688.6850374710002,689.1915061680002,688.6850374710002,689.1915061680002,688.6850374710002,689.1915061680002,None,None,left,2.7932505530002345,689.9911443390001,None,None,None,z,0.292931598999985,692.8434379380001,None,693.1632455110002,None,,10,6,8,,,,,104,23,2022_Sep_12_1104,templeton_exp2A_SD,2020.2.10,37.51258505026819,
,,,,,,,,,,,,,,,,,,,,,,30,0,30,0,,,,,,,,,,,,,,,,,,,,,,,,3.1,3.2,3.7,,,,,,,,,,,,,,,,,,,,,,,,,,,,,,,,,,,30,634.7690210250003,1,7,2,5,3,8,0,6,1,0,4,728.9630986050001,None,1,7,2,5,3,8,0,6,,732.6283734419999,None,732.6283734419999,None,732.6283734419999,None,732.6283734419999,None,732.6283734419999,None,732.6283734419999,None,732.6283734419999,None,732.6283734419999,None,732.708304411,733.2148236630001,732.708304411,733.2148236630001,732.708304411,733.2148236630001,None,None,left,2.2200778340002216,732.708304411,None,None,None,x,0.27160185399998227,735.0007766180001,None,735.320646311,None,,11,6,8,,,,,104,23,2022_Sep_12_1104,templeton_exp2A_SD,2020.2.10,37.51258505026819,
,,,,,,,,,,,,,,,,,,,,,,31,0,31,0,,,,,,,,,,,,,,,,,,,,,,,,2.9000000000000004,1.6,2.9000000000000004,,,,,,,,,,,,,,,,,,,,,,,,,,,,,,,,,,,31,641.7033121910004,0,7,4,9,2,6,1,8,0,1,5,735.8938016360003,None,0,7,4,9,2,3,1,8,,739.3457384980002,None,739.3457384980002,None,739.3457384980002,None,739.3457384980002,None,739.3457384980002,None,739.3457384980002,None,739.3457384980002,None,739.3457384980002,None,738.0396182740001,738.5461384519999,738.0396182740001,738.5461384519999,738.0396182740001,738.5461384519999,None,None,down,0.7266141689997312,739.3457384980002,None,None,None,z,0.32695989700005157,740.145379432,None,740.518657606,None,,12,7,9,,,,,104,23,2022_Sep_12_1104,templeton_exp2A_SD,2020.2.10,37.51258505026819,
,,,,,,,,,,,,,,,,,,,,,,32,0,32,0,,,,,,,,,,,,,,,,,,,,,,,,2.9000000000000004,1.6,2.9000000000000004,,,,,,,,,,,,,,,,,,,,,,,,,,,,,,,,,,,32,646.9016377800003,0,8,2,7,1,6,4,9,0,0,7,741.091796829,None,0,8,2,7,1,6,4,9,,744.5438038540001,None,744.5438038540001,None,744.5438038540001,None,744.5438038540001,None,744.5438038540001,None,744.5438038540001,None,744.5438038540001,None,744.5438038540001,None,743.2376452060003,743.7441463770001,743.2376452060003,743.7441463770001,743.2376452060003,743.7441463770001,None,None,left,0.992560985000182,744.5438038540001,None,None,None,z,0.28636324799981594,745.61004306,None,745.9300033620002,None,,13,8,10,,,,,104,23,2022_Sep_12_1104,templeton_exp2A_SD,2020.2.10,37.51258505026819,
,,,,,,,,,,,,,,,,,,,,,,33,0,33,0,,,,,,,,,,,,,,,,,,,,,,,,2.9000000000000004,1.6,2.9000000000000004,,,,,,,,,,,,,,,,,,,,,,,,,,,,,,,,,,,33,652.3124457390004,2,6,3,9,4,8,1,7,0,0,5,746.503128161,None,2,6,3,9,4,8,1,7,,749.9550341570002,None,749.9550341570002,None,749.9550341570002,None,749.9550341570002,None,749.9550341570002,None,749.9550341570002,None,749.9550341570002,None,749.9550341570002,None,748.648900525,749.1553806860002,748.648900525,749.1553806860002,748.648900525,749.1553806860002,None,None,left,0.6613385050000034,749.9550341570002,None,None,None,z,0.30152780800017354,750.674857856,None,751.0213137790001,None,,14,9,11,,,,,104,23,2022_Sep_12_1104,templeton_exp2A_SD,2020.2.10,37.51258505026819,
,,,,,,,,,,,,,,,,,,,,,,34,0,34,0,,,,,,,,,,,,,,,,,,,,,,,,3.3000000000000003,3.4000000000000004,3.9000000000000004,,,,,,,,,,,,,,,,,,,,,,,,,,,,,,,,,,,34,657.4029153680003,2,6,1,7,0,9,4,5,1,1,0,751.5945206880001,None,3,6,1,7,0,9,4,5,,755.4463984670001,None,755.4463984670001,None,755.4463984670001,None,755.4463984670001,None,755.4463984670001,None,755.4463984670001,None,755.4463984670001,None,755.4463984670001,None,755.5530268319999,756.0594519609999,755.5530268319999,756.0594519609999,755.5530268319999,756.0594519609999,None,None,left,1.615356901999803,755.5530268319999,None,None,None,x,0.29599854599973696,757.2323814719998,None,757.5788802460002,None,,15,9,11,,,,,104,23,2022_Sep_12_1104,templeton_exp2A_SD,2020.2.10,37.51258505026819,
,,,,,,,,,,,,,,,,,,,,,,35,0,35,0,,,,,,,,,,,,,,,,,,,,,,,,3.1,3.2,3.7,,,,,,,,,,,,,,,,,,,,,,,,,,,,,,,,,,,35,663.9604319560003,0,5,1,7,4,9,3,6,1,0,6,758.1520544300001,None,0,5,1,7,4,9,3,6,,761.8173159140001,None,761.8173159140001,None,761.8173159140001,None,761.8173159140001,None,761.8173159140001,None,761.8173159140001,None,761.8173159140001,None,761.8173159140001,None,761.8973390740002,762.4037114420003,761.8973390740002,762.4037114420003,761.8973390740002,762.4037114420003,None,None,left,0.8389363330002197,761.8973390740002,None,None,None,z,0.33279564900021796,762.803592404,None,763.176786038,None,,16,9,11,,,,,104,23,2022_Sep_12_1104,templeton_exp2A_SD,2020.2.10,37.51258505026819,
,,,,,,,,,,,,,,,,,,,,,,36,0,36,0,,,,,,,,,,,,,,,,,,,,,,,,2.9000000000000004,1.6,2.9000000000000004,,,,,,,,,,,,,,,,,,,,,,,,,,,,,,,,,,,36,669.5594053560003,0,7,4,8,1,5,2,6,0,0,2,763.7499267789999,None,0,7,4,8,1,5,2,6,,767.201895448,None,767.201895448,None,767.201895448,None,767.201895448,None,767.201895448,None,767.201895448,None,767.201895448,None,767.201895448,None,765.8957688099999,766.4022032470002,765.8957688099999,766.4022032470002,765.8957688099999,766.4022032470002,None,None,down,1.9744776380002804,767.201895448,None,None,None,x,0.38583626799982085,769.2545010700001,None,769.680944829,None,,17,9,12,,,,,104,23,2022_Sep_12_1104,templeton_exp2A_SD,2020.2.10,37.51258505026819,
,,,,,,,,,,,,,,,,,,,,,,37,0,37,0,,,,,,,,,,,,,,,,,,,,,,,,2.3000000000000003,2.4000000000000004,2.9000000000000004,,,,,,,,,,,,,,,,,,,,,,,,,,,,,,,,,,,37,676.063383313,3,9,0,7,2,5,1,8,1,0,2,770.2540828410001,None,3,9,0,7,2,5,1,8,,773.1196443489998,None,773.1196443489998,None,773.1196443489998,None,773.1196443489998,None,773.1196443489998,None,773.1196443489998,None,773.1196443489998,None,773.1196443489998,None,773.1996292210001,773.706082449,773.1996292210001,773.706082449,773.1996292210001,773.706082449,None,None,left,1.2326976589997685,773.1996292210001,None,None,None,z,0.2705890150000414,774.5057898579998,None,774.8257058220001,None,,18,9,12,,,,,104,23,2022_Sep_12_1104,templeton_exp2A_SD,2020.2.10,37.51258505026819,
,,,,,,,,,,,,,,,,,,,,,,38,0,38,0,,,,,,,,,,,,,,,,,,,,,,,,2.9000000000000004,1.6,2.9000000000000004,,,,,,,,,,,,,,,,,,,,,,,,,,,,,,,,,,,38,681.2079596890003,0,7,3,9,1,8,4,6,0,0,2,775.398841789,None,0,7,3,9,1,8,4,6,,778.8508711109998,None,778.8508711109998,None,778.8508711109998,None,778.8508711109998,None,778.8508711109998,None,778.8508711109998,None,778.8508711109998,None,778.8508711109998,None,777.5446733520002,778.0511806320001,777.5446733520002,778.0511806320001,777.5446733520002,778.0511806320001,None,None,left,0.5654891780000071,778.8508711109998,None,None,None,z,0.3098156039995956,779.4905709089999,None,779.8370958840001,None,,19,10,13,,,,,104,23,2022_Sep_12_1104,templeton_exp2A_SD,2020.2.10,37.51258505026819,
,,,,,,,,,,,,,,,,,,,,,,39,0,39,0,,,,,,,,,,,,,,,,,,,,,,,,2.5,2.6,3.1,,,,,,,,,,,,,,,,,,,,,,,,,,,,,,,,,,,39,686.219179488,2,5,4,6,1,9,0,8,1,1,5,780.4101889459998,None,2,5,4,6,1,3,0,8,,783.4624451059999,None,783.4624451059999,None,783.4624451059999,None,783.4624451059999,None,783.4624451059999,None,783.4624451059999,None,783.4624451059999,None,783.4624451059999,None,783.5690585749999,784.0755413800002,783.5690585749999,784.0755413800002,783.5690585749999,784.0755413800002,None,None,left,0.903325187000064,783.5690585749999,None,None,None,z,0.22367885599987858,784.5287049570002,None,784.7951961520002,None,,20,10,13,,,,,104,23,2022_Sep_12_1104,templeton_exp2A_SD,2020.2.10,37.51258505026819,
,,,,,,,,,,,,,,,,,,,,,,40,0,40,0,,,,,,,,,,,,,,,,,,,,,,,,2.9000000000000004,1.6,2.9000000000000004,,,,,,,,,,,,,,,,,,,,,,,,,,,,,,,,,,,40,691.1777342290002,1,8,0,5,3,7,4,6,0,1,6,785.3683915619999,None,1,8,0,5,3,7,2,6,,788.8203507160001,None,788.8203507160001,None,788.8203507160001,None,788.8203507160001,None,788.8203507160001,None,788.8203507160001,None,788.8203507160001,None,788.8203507160001,None,787.5142440909999,788.0207398130001,787.5142440909999,788.0207398130001,787.5142440909999,788.0207398130001,None,None,down,1.42802033199996,788.8203507160001,None,None,None,z,0.31121417000031215,790.3131693270002,None,790.659670521,None,,21,11,14,,,,,104,23,2022_Sep_12_1104,templeton_exp2A_SD,2020.2.10,37.51258505026819,
,,,,,,,,,,,,,,,,,,,,,,41,0,41,0,,,,,,,,,,,,,,,,,,,,,,,,2.9000000000000004,1.6,2.9000000000000004,,,,,,,,,,,,,,,,,,,,,,,,,,,,,,,,,,,41,697.0416789680003,0,5,4,6,2,8,3,9,0,0,1,791.2328327939999,None,0,5,4,6,2,8,3,9,,794.6848836980002,None,794.6848836980002,None,794.6848836980002,None,794.6848836980002,None,794.6848836980002,None,794.6848836980002,None,794.6848836980002,None,794.6848836980002,None,793.3786356,793.8850890690001,793.3786356,793.8850890690001,793.3786356,793.8850890690001,None,None,left,0.5394757280000704,794.6848836980002,None,None,None,z,0.23047784700020202,795.297909424,None,795.5645130100002,None,,22,12,15,,,,,104,23,2022_Sep_12_1104,templeton_exp2A_SD,2020.2.10,37.51258505026819,
,,,,,,,,,,,,,,,,,,,,,,42,0,42,0,,,,,,,,,,,,,,,,,,,,,,,,2.9000000000000004,1.6,2.9000000000000004,,,,,,,,,,,,,,,,,,,,,,,,,,,,,,,,,,,42,701.946869458,2,9,4,8,0,5,3,6,0,0,0,796.1376059540003,None,2,9,4,8,0,5,3,6,,799.58966465,None,799.58966465,None,799.58966465,None,799.58966465,None,799.58966465,None,799.58966465,None,799.58966465,None,799.58966465,None,798.283359258,798.789959788,798.283359258,798.789959788,798.283359258,798.789959788,None,None,left,2.2186986120000256,799.58966465,None,None,None,z,0.08626381699968988,801.8821236479998,None,802.0154172719999,None,,23,13,16,,,,,104,23,2022_Sep_12_1104,templeton_exp2A_SD,2020.2.10,37.51258505026819,
,,,,,,,,,,,,,,,,,,,,,,43,0,43,0,,,,,,,,,,,,,,,,,,,,,,,,2.9000000000000004,1.6,2.9000000000000004,,,,,,,,,,,,,,,,,,,,,,,,,,,,,,,,,,,43,708.3977080170002,3,7,0,6,4,8,2,5,0,0,6,802.5884703830002,None,3,7,0,6,4,8,2,5,,806.040549374,None,806.040549374,None,806.040549374,None,806.040549374,None,806.040549374,None,806.040549374,None,806.040549374,None,806.040549374,None,804.7344002,805.2408193870001,804.7344002,805.2408193870001,804.7344002,805.2408193870001,None,None,left,0.49582322499963993,806.040549374,None,None,None,z,0.20006078100004743,806.6003306580001,None,806.840207663,None,,24,14,17,,,,,104,23,2022_Sep_12_1104,templeton_exp2A_SD,2020.2.10,37.51258505026819,
,,,,,,,,,,,,,,,,,,,,,,44,0,44,0,,,,,,,,,,,,,,,,,,,,,,,,1.9,2.0,2.5,,,,,,,,,,,,,,,,,,,,,,,,,,,,,,,,,,,44,713.2222521250001,2,9,1,8,0,6,3,5,1,0,3,807.4133608050001,None,2,9,1,8,0,6,3,5,,809.87910276,None,809.87910276,None,809.87910276,None,809.87910276,None,809.87910276,None,809.87910276,None,809.87910276,None,809.87910276,None,809.959020105,810.465445157,809.959020105,810.465445157,809.959020105,810.465445157,None,None,left,1.7613604980001583,809.959020105,None,None,None,x,0.14602847200012548,811.798359292,None,811.9849057040001,None,,25,14,17,,,,,104,23,2022_Sep_12_1104,templeton_exp2A_SD,2020.2.10,37.51258505026819,
,,,,,,,,,,,,,,,,,,,,,,45,0,45,0,,,,,,,,,,,,,,,,,,,,,,,,2.9000000000000004,1.6,2.9000000000000004,,,,,,,,,,,,,,,,,,,,,,,,,,,,,,,,,,,45,719.1519084240003,4,9,3,5,0,8,2,7,0,1,7,813.344511923,None,4,9,3,5,0,8,2,1,,816.7964656419999,None,816.7964656419999,None,816.7964656419999,None,816.7964656419999,None,816.7964656419999,None,816.7964656419999,None,816.7964656419999,None,816.7964656419999,None,815.4902716390002,815.996742069,815.4902716390002,815.996742069,815.4902716390002,815.996742069,None,None,left,0.5479082790002394,816.7964656419999,None,None,None,z,0.11888418799981082,817.4094854770001,None,817.5693904509999,None,,26,14,18,,,,,104,23,2022_Sep_12_1104,templeton_exp2A_SD,2020.2.10,37.51258505026819,
,,,,,,,,,,,,,,,,,,,,,,46,0,46,0,,,,,,,,,,,,,,,,,,,,,,,,3.3000000000000003,3.4000000000000004,3.9000000000000004,,,,,,,,,,,,,,,,,,,,,,,,,,,,,,,,,,,46,723.9510593040004,2,7,4,9,0,5,3,6,1,1,4,818.1426232929998,None,2,7,4,9,1,5,3,6,,821.9944558380002,None,821.9944558380002,None,821.9944558380002,None,821.9944558380002,None,821.9944558380002,None,821.9944558380002,None,821.9944558380002,None,821.9944558380002,None,822.1011566699999,822.6075734870001,822.1011566699999,822.6075734870001,822.1011566699999,822.6075734870001,None,None,left,1.2832111960001384,822.1011566699999,None,None,None,x,0.16379264499983037,823.4605843620002,None,823.6738375230002,None,,27,14,18,,,,,104,23,2022_Sep_12_1104,templeton_exp2A_SD,2020.2.10,37.51258505026819,
,,,,,,,,,,,,,,,,,,,,,,47,0,47,0,,,,,,,,,,,,,,,,,,,,,,,,3.3000000000000003,3.4000000000000004,3.9000000000000004,,,,,,,,,,,,,,,,,,,,,,,,,,,,,,,,,,,47,730.0562604480001,2,5,0,6,1,7,4,8,1,0,6,824.2469898459999,None,2,5,0,6,1,7,4,8,,828.098867573,None,828.098867573,None,828.098867573,None,828.098867573,None,828.098867573,None,828.098867573,None,828.098867573,None,828.098867573,None,828.205404112,828.7119527049999,828.205404112,828.7119527049999,828.205404112,828.7119527049999,None,None,left,4.970966449000116,828.205404112,None,None,None,x,0.2128015459998096,833.243567425,None,833.483473623,None,,28,14,18,,,,,104,23,2022_Sep_12_1104,templeton_exp2A_SD,2020.2.10,37.51258505026819,
,,,,,,,,,,,,,,,,,,,,,,48,0,48,0,,,,,,,,,,,,,,,,,,,,,,,,2.9000000000000004,1.6,2.9000000000000004,,,,,,,,,,,,,,,,,,,,,,,,,,,,,,,,,,,48,739.864591642,3,7,1,5,2,9,4,6,0,1,0,834.056606435,None,0,7,1,5,2,9,4,6,,837.508596054,None,837.508596054,None,837.508596054,None,837.508596054,None,837.508596054,None,837.508596054,None,837.508596054,None,837.508596054,None,836.2024124180002,836.7089082580001,836.2024124180002,836.7089082580001,836.2024124180002,836.7089082580001,None,None,down,0.707778984000015,837.508596054,None,None,None,z,0.20664755600000717,838.2816780759999,None,838.5215393090002,None,,29,15,19,,,,,104,23,2022_Sep_12_1104,templeton_exp2A_SD,2020.2.10,37.51258505026819,
,,,,,,,,,,,,,,,,,,,,,,49,0,49,0,,,,,,,,,,,,,,,,,,,,,,,,2.9000000000000004,1.6,2.9000000000000004,,,,,,,,,,,,,,,,,,,,,,,,,,,,,,,,,,,49,744.9032097830004,2,9,4,8,0,6,1,5,0,1,4,839.0946860590002,None,2,9,4,8,3,6,1,5,,842.5466736540002,None,842.5466736540002,None,842.5466736540002,None,842.5466736540002,None,842.5466736540002,None,842.5466736540002,None,842.5466736540002,None,842.5466736540002,None,841.240491173,841.7470108020002,841.240491173,841.7470108020002,841.240491173,841.7470108020002,None,None,down,0.9416925639998226,842.5466736540002,None,None,None,z,0.28071606299999985,843.5596218720002,None,843.8795428660001,None,,30,16,20,,,,,104,23,2022_Sep_12_1104,templeton_exp2A_SD,2020.2.10,37.51258505026819,
,,,,,,,,,,,,,,,,,,,,,,50,0,50,0,,,,,,,,,,,,,,,,,,,,,,,,2.1,2.2,2.7,,,,,,,,,,,,,,,,,,,,,,,,,,,,,,,,,,,50,750.2615857090004,1,5,4,9,2,6,0,8,1,0,1,844.4526249390001,None,1,5,4,9,2,6,0,8,,847.104917911,None,847.104917911,None,847.104917911,None,847.104917911,None,847.104917911,None,847.104917911,None,847.104917911,None,847.104917911,None,847.2116249310002,847.7181060540001,847.2116249310002,847.7181060540001,847.2116249310002,847.7181060540001,None,None,down,2.556804555000326,847.2116249310002,None,None,None,x,0.24031591600032698,849.8239701329999,None,850.1171401860001,None,,31,16,20,,,,,104,23,2022_Sep_12_1104,templeton_exp2A_SD,2020.2.10,37.51258505026819,
,,,,,,,,,,,,,,,,,,,,,,51,0,51,0,,,,,,,,,,,,,,,,,,,,,,,,2.9,3.0,3.5,,,,,,,,,,,,,,,,,,,,,,,,,,,,,,,,,,,51,756.5003030370003,3,8,0,7,4,6,1,5,1,1,3,850.6902532960003,None,3,8,0,2,4,6,1,5,,854.1422902730001,None,854.1422902730001,None,854.1422902730001,None,854.1422902730001,None,854.1422902730001,None,854.1422902730001,None,854.1422902730001,None,854.1422902730001,None,854.2488886900001,854.7552981899998,854.2488886900001,854.7552981899998,854.2488886900001,854.7552981899998,None,None,left,4.895477018999827,854.2488886900001,None,None,None,x,0.24930082300033973,859.2070357510001,None,859.5002883850002,None,,32,16,20,,,,,104,23,2022_Sep_12_1104,templeton_exp2A_SD,2020.2.10,37.51258505026819,
,,,,,,,,,,,,,,,,,,,,,,52,0,52,0,,,,,,,,,,,,,,,,,,,,,,,,2.9000000000000004,1.6,2.9000000000000004,,,,,,,,,,,,,,,,,,,,,,,,,,,,,,,,,,,52,765.8818298370002,0,8,2,6,4,9,1,5,0,0,1,860.0732763649999,None,0,8,2,6,4,9,1,5,,863.525399782,None,863.525399782,None,863.525399782,None,863.525399782,None,863.525399782,None,863.525399782,None,863.525399782,None,863.525399782,None,862.2192892359999,862.7257340840001,862.2192892359999,862.7257340840001,862.2192892359999,862.7257340840001,None,None,left,0.5549569189997783,863.525399782,None,None,None,z,0.22987741399992956,864.138510834,None,864.4050337849999,None,,33,17,21,,,,,104,23,2022_Sep_12_1104,templeton_exp2A_SD,2020.2.10,37.51258505026819,
,,,,,,,,,,,,,,,,,,,,,,53,0,53,0,,,,,,,,,,,,,,,,,,,,,,,,2.1,2.2,2.7,,,,,,,,,,,,,,,,,,,,,,,,,,,,,,,,,,,53,770.7862461030004,1,5,0,6,2,9,4,7,1,0,3,864.9782121110002,None,1,5,0,6,2,9,4,7,,867.6305567580002,None,867.6305567580002,None,867.6305567580002,None,867.6305567580002,None,867.6305567580002,None,867.6305567580002,None,867.6305567580002,None,867.6305567580002,None,867.7371697029998,868.2435721030001,867.7371697029998,868.2435721030001,867.7371697029998,868.2435721030001,None,None,down,2.1272115310002846,867.7371697029998,None,None,None,x,0.22136740300038582,869.92300265,None,870.1895198090001,None,,34,17,21,,,,,104,23,2022_Sep_12_1104,templeton_exp2A_SD,2020.2.10,37.51258505026819,
,,,,,,,,,,,,,,,,,,,,,,54,0,54,0,,,,,,,,,,,,,,,,,,,,,,,,2.9000000000000004,1.6,2.9000000000000004,,,,,,,,,,,,,,,,,,,,,,,,,,,,,,,,,,,54,776.5722065720001,4,5,0,9,1,8,2,6,0,1,6,870.7626995780001,None,4,5,0,9,1,8,3,6,,874.2147119040001,None,874.2147119040001,None,874.2147119040001,None,874.2147119040001,None,874.2147119040001,None,874.2147119040001,None,874.2147119040001,None,874.2147119040001,None,872.9084817600001,873.415011735,872.9084817600001,873.415011735,872.9084817600001,873.415011735,None,None,down,0.6816615160000765,874.2147119040001,None,None,None,z,0.22332601200014324,874.961095952,None,875.2276738199998,None,,35,18,22,,,,,104,23,2022_Sep_12_1104,templeton_exp2A_SD,2020.2.10,37.51258505026819,
,,,,,,,,,,,,,,,,,,,,,,55,0,55,0,,,,,,,,,,,,,,,,,,,,,,,,2.3000000000000003,2.4000000000000004,2.9000000000000004,,,,,,,,,,,,,,,,,,,,,,,,,,,,,,,,,,,55,781.6094697960002,0,9,2,6,3,8,1,5,1,0,4,875.8007222450001,None,0,9,2,6,3,8,1,5,,878.666335897,None,878.666335897,None,878.666335897,None,878.666335897,None,878.666335897,None,878.666335897,None,878.666335897,None,878.666335897,None,878.7462860810001,879.2527709659998,878.7462860810001,879.2527709659998,878.7462860810001,879.2527709659998,None,None,down,1.7180947820002075,878.7462860810001,None,None,None,x,0.5400636949998443,880.5323217589998,None,881.118783593,None,,36,18,22,,,,,104,23,2022_Sep_12_1104,templeton_exp2A_SD,2020.2.10,37.51258505026819,
,,,,,,,,,,,,,,,,,,,,,,56,0,56,0,,,,,,,,,,,,,,,,,,,,,,,,2.9000000000000004,1.6,2.9000000000000004,,,,,,,,,,,,,,,,,,,,,,,,,,,,,,,,,,,56,787.5011240440003,1,8,2,5,0,6,4,7,0,0,2,881.6918538929999,None,1,8,2,5,0,6,4,7,,885.143900002,None,885.143900002,None,885.143900002,None,885.143900002,None,885.143900002,None,885.143900002,None,885.143900002,None,885.143900002,None,883.8376694140002,884.3442025009999,883.8376694140002,884.3442025009999,883.8376694140002,884.3442025009999,None,None,left,2.4964587790000223,885.143900002,None,None,None,z,0.32138353299978917,887.7029649730002,None,888.0761042990002,None,,37,19,23,,,,,104,23,2022_Sep_12_1104,templeton_exp2A_SD,2020.2.10,37.51258505026819,
,,,,,,,,,,,,,,,,,,,,,,57,0,57,0,,,,,,,,,,,,,,,,,,,,,,,,1.7,1.8,2.3,,,,,,,,,,,,,,,,,,,,,,,,,,,,,,,,,,,57,794.4581984160004,3,5,2,8,0,9,4,6,1,0,2,888.6492522039998,None,3,5,2,8,0,9,4,6,,890.9017483860002,None,890.9017483860002,None,890.9017483860002,None,890.9017483860002,None,890.9017483860002,None,890.9017483860002,None,890.9017483860002,None,890.9017483860002,None,891.008322359,891.5148380800001,891.008322359,891.5148380800001,891.008322359,891.5148380800001,None,None,left,2.1040616780001073,891.008322359,None,None,None,z,0.3688840680001704,893.1675453490002,None,893.5673825029999,None,,38,19,23,,,,,104,23,2022_Sep_12_1104,templeton_exp2A_SD,2020.2.10,37.51258505026819,
,,,,,,,,,,,,,,,,,,,,,,58,0,58,0,,,,,,,,,,,,,,,,,,,,,,,,2.5,2.6,3.1,,,,,,,,,,,,,,,,,,,,,,,,,,,,,,,,,,,58,799.9493178270004,0,5,2,7,1,8,4,9,1,1,5,894.1404561710001,None,0,5,2,7,1,3,4,9,,897.1926128969999,None,897.1926128969999,None,897.1926128969999,None,897.1926128969999,None,897.1926128969999,None,897.1926128969999,None,897.1926128969999,None,897.1926128969999,None,897.2992598720002,897.8057474110001,897.2992598720002,897.8057474110001,897.2992598720002,897.8057474110001,None,None,down,1.541121247999854,897.2992598720002,None,None,None,x,0.2776950110001053,898.8986918310002,None,899.2185710489998,None,,39,19,23,,,,,104,23,2022_Sep_12_1104,templeton_exp2A_SD,2020.2.10,37.51258505026819,
,,,,,,,,,,,,,,,,,,,,,,59,0,59,0,,,,,,,,,,,,,,,,,,,,,,,,2.3000000000000003,2.4000000000000004,2.9000000000000004,,,,,,,,,,,,,,,,,,,,,,,,,,,,,,,,,,,59,805.601082397,2,6,1,5,0,7,4,8,1,0,5,899.7916976450001,None,2,6,1,5,0,7,4,8,,902.6572327879999,None,902.6572327879999,None,902.6572327879999,None,902.6572327879999,None,902.6572327879999,None,902.6572327879999,None,902.6572327879999,None,902.6572327879999,None,902.737252072,903.2438090240003,902.737252072,903.2438090240003,902.737252072,903.2438090240003,None,None,left,0.7590893219999089,902.737252072,None,None,None,z,0.22084211100036555,903.5635947840001,None,903.8301672860002,None,,40,19,23,,,,,104,23,2022_Sep_12_1104,templeton_exp2A_SD,2020.2.10,37.51258505026819,
,,,,,,,,,,,,,,,,,,,,,,60,0,60,0,,,,,,,,,,,,,,,,,,,,,,,,2.9000000000000004,1.6,2.9000000000000004,,,,,,,,,,,,,,,,,,,,,,,,,,,,,,,,,,,60,1024.1684174870002,1,7,2,5,3,6,4,8,0,1,0,1118.362214841,None,0,7,2,5,3,6,4,8,,1121.8142402100002,None,1121.8142402100002,None,1121.8142402100002,None,1121.8142402100002,None,1121.8142402100002,None,1121.8142402100002,None,1121.8142402100002,None,1121.8142402100002,None,1120.508019471,1121.014534806,1120.508019471,1121.014534806,1120.508019471,1121.014534806,None,None,down,2.8260310790001313,1121.8142402100002,None,None,None,z,1.0005663990000357,1124.7198057760002,None,1125.759395485,None,,41,20,24,,,,,104,23,2022_Sep_12_1104,templeton_exp2A_SD,2020.2.10,37.51258505026819,
,,,,,,,,,,,,,,,,,,,,,,61,0,61,0,,,,,,,,,,,,,,,,,,,,,,,,2.9000000000000004,1.6,2.9000000000000004,,,,,,,,,,,,,,,,,,,,,,,,,,,,,,,,,,,61,1032.1426015290003,0,7,2,9,1,8,3,6,0,1,3,1126.332474461,None,0,7,2,4,1,8,3,6,,1129.7845460120002,None,1129.7845460120002,None,1129.7845460120002,None,1129.7845460120002,None,1129.7845460120002,None,1129.7845460120002,None,1129.7845460120002,None,1129.7845460120002,None,1128.505054444,1129.0114968860003,1128.505054444,1129.0114968860003,1128.505054444,1129.0114968860003,None,None,left,2.8718178540002555,1129.7845460120002,None,None,None,c,0.563617665000038,1132.716759718,None,1133.3298324349998,None,,42,20,25,,,,,104,23,2022_Sep_12_1104,templeton_exp2A_SD,2020.2.10,37.51258505026819,
,,,,,,,,,,,,,,,,,,,,,,62,0,62,0,,,,,,,,,,,,,,,,,,,,,,,,2.9000000000000004,1.6,2.9000000000000004,,,,,,,,,,,,,,,,,,,,,,,,,,,,,,,,,,,62,1039.7122931510003,0,5,4,8,1,9,3,6,0,1,4,1133.9030046100002,None,0,5,4,8,2,9,3,6,,1137.3549393070002,None,1137.3549393070002,None,1137.3549393070002,None,1137.3549393070002,None,1137.3549393070002,None,1137.3549393070002,None,1137.3549393070002,None,1137.3549393070002,None,1136.0488464539999,1136.5552765930001,1136.0488464539999,1136.5552765930001,1136.0488464539999,1136.5552765930001,None,None,left,1.5574319249999462,1137.3549393070002,None,None,None,z,0.33937701599961656,1138.981038945,None,1139.354275738,None,,43,20,26,,,,,104,23,2022_Sep_12_1104,templeton_exp2A_SD,2020.2.10,37.51258505026819,
,,,,,,,,,,,,,,,,,,,,,,63,0,63,0,,,,,,,,,,,,,,,,,,,,,,,,3.5,3.6,4.1,,,,,,,,,,,,,,,,,,,,,,,,,,,,,,,,,,,63,1045.7366414940002,3,8,4,5,0,6,1,9,1,0,3,1139.9273609289999,None,3,8,4,5,0,6,1,9,,1143.992520015,None,1143.992520015,None,1143.992520015,None,1143.992520015,None,1143.992520015,None,1143.992520015,None,1143.992520015,None,1143.992520015,None,1144.072459641,1144.578930009,1144.072459641,1144.578930009,1144.072459641,1144.578930009,None,None,left,1.383907067999644,1144.072459641,None,None,None,x,0.6084710119998817,1145.5119168679998,None,1146.151601895,None,,44,20,26,,,,,104,23,2022_Sep_12_1104,templeton_exp2A_SD,2020.2.10,37.51258505026819,
,,,,,,,,,,,,,,,,,,,,,,64,0,64,0,,,,,,,,,,,,,,,,,,,,,,,,2.9000000000000004,1.6,2.9000000000000004,,,,,,,,,,,,,,,,,,,,,,,,,,,,,,,,,,,64,1052.5343006790004,1,5,2,7,0,6,4,8,0,1,3,1146.724760476,None,1,5,2,3,0,6,4,8,,1150.176819755,None,1150.176819755,None,1150.176819755,None,1150.176819755,None,1150.176819755,None,1150.176819755,None,1150.176819755,None,1150.176819755,None,1148.8706130700002,1149.377097055,1148.8706130700002,1149.377097055,1148.8706130700002,1149.377097055,None,None,down,0.8955411810002261,1150.176819755,None,None,None,z,0.2799148899998727,1151.1364763810002,None,1151.4562996569998,None,,45,21,27,,,,,104,23,2022_Sep_12_1104,templeton_exp2A_SD,2020.2.10,37.51258505026819,
,,,,,,,,,,,,,,,,,,,,,,65,0,65,0,,,,,,,,,,,,,,,,,,,,,,,,2.9,3.0,3.5,,,,,,,,,,,,,,,,,,,,,,,,,,,,,,,,,,,65,1057.8388859190004,3,9,4,7,2,6,1,8,1,0,1,1152.0294452990001,None,3,9,4,7,2,6,1,8,,1155.4814700360002,None,1155.4814700360002,None,1155.4814700360002,None,1155.4814700360002,None,1155.4814700360002,None,1155.4814700360002,None,1155.4814700360002,None,1155.4814700360002,None,1155.5880795560001,1156.0945817030001,1155.5880795560001,1156.0945817030001,1155.5880795560001,1156.0945817030001,None,None,left,0.9642917480000506,1155.5880795560001,None,None,None,z,0.19670730000007097,1156.627668909,None,1156.8676336580002,None,,46,21,27,,,,,104,23,2022_Sep_12_1104,templeton_exp2A_SD,2020.2.10,37.51258505026819,
,,,,,,,,,,,,,,,,,,,,,,66,0,66,0,,,,,,,,,,,,,,,,,,,,,,,,3.3000000000000003,3.4000000000000004,3.9000000000000004,,,,,,,,,,,,,,,,,,,,,,,,,,,,,,,,,,,66,1063.2497958920003,1,6,2,7,3,8,4,5,1,1,0,1157.4406979280002,None,0,6,2,7,3,8,4,5,,1161.2925732600002,None,1161.2925732600002,None,1161.2925732600002,None,1161.2925732600002,None,1161.2925732600002,None,1161.2925732600002,None,1161.2925732600002,None,1161.2925732600002,None,1161.399225608,1161.9056597479998,1161.399225608,1161.9056597479998,1161.399225608,1161.9056597479998,None,None,left,1.7050582740002937,1161.399225608,None,None,None,z,0.3378318569998555,1163.1585529140002,None,1163.531772461,None,,47,21,27,,,,,104,23,2022_Sep_12_1104,templeton_exp2A_SD,2020.2.10,37.51258505026819,
,,,,,,,,,,,,,,,,,,,,,,67,0,67,0,,,,,,,,,,,,,,,,,,,,,,,,3.3000000000000003,3.4000000000000004,3.9000000000000004,,,,,,,,,,,,,,,,,,,,,,,,,,,,,,,,,,,67,1069.914302186,0,5,1,7,2,9,3,8,1,0,3,1164.1047677800002,None,0,5,1,7,2,9,3,8,,1167.956757769,None,1167.956757769,None,1167.956757769,None,1167.956757769,None,1167.956757769,None,1167.956757769,None,1167.956757769,None,1167.956757769,None,1168.0633694150001,1168.5698573129998,1168.0633694150001,1168.5698573129998,1168.0633694150001,1168.5698573129998,None,None,down,1.4249624749995746,1168.0633694150001,None,None,None,z,0.28427528400015944,1169.556095378,None,1169.8760103660002,None,,48,21,27,,,,,104,23,2022_Sep_12_1104,templeton_exp2A_SD,2020.2.10,37.51258505026819,
,,,,,,,,,,,,,,,,,,,,,,68,0,68,0,,,,,,,,,,,,,,,,,,,,,,,,2.9000000000000004,1.6,2.9000000000000004,,,,,,,,,,,,,,,,,,,,,,,,,,,,,,,,,,,68,1076.257917291,1,5,2,9,3,6,4,8,0,1,3,1170.4491064560002,None,1,5,2,0,3,6,4,8,,1173.9011878800002,None,1173.9011878800002,None,1173.9011878800002,None,1173.9011878800002,None,1173.9011878800002,None,1173.9011878800002,None,1173.9011878800002,None,1173.9011878800002,None,1172.594983505,1173.101473069,1172.594983505,1173.101473069,1172.594983505,1173.101473069,None,None,down,1.1551744399998825,1173.9011878800002,None,None,None,z,0.5850331370002095,1175.1273536429999,None,1175.7404319789998,None,,49,22,28,1,0.7857142857142857,0,,104,23,2022_Sep_12_1104,templeton_exp2A_SD,2020.2.10,37.51258505026819,
,,,,,,,,,,,,,,,,,,,,,,69,0,69,0,,,,,,,,,,,,,,,,,,,,,,,,2.5,2.6,3.1,,,,,,,,,,,,,,,,,,,,,,,,,,,,,,,,,,,69,1082.122725309,0,7,4,6,3,8,2,9,1,0,7,1176.313573888,None,0,7,4,6,3,8,2,9,,1179.365530008,None,1179.365530008,None,1179.365530008,None,1179.365530008,None,1179.365530008,None,1179.365530008,None,1179.365530008,None,1179.365530008,None,1179.472383193,1179.9788606820002,1179.472383193,1179.9788606820002,1179.472383193,1179.9788606820002,None,None,left,3.3999858359998143,1179.472383193,None,None,None,x,0.454752966000342,1182.937640743,None,1183.444178488,None,,0,0,0,,,,,104,23,2022_Sep_12_1104,templeton_exp2A_SD,2020.2.10,37.51258505026819,
,,,,,,,,,,,,,,,,,,,,,,70,0,70,0,,,,,,,,,,,,,,,,,,,,,,,,2.7,2.8000000000000003,3.3000000000000003,,,,,,,,,,,,,,,,,,,,,,,,,,,,,,,,,,,70,1089.825928056,3,8,1,9,0,5,2,6,1,1,1,1184.0172326370002,None,3,4,1,9,0,5,2,6,,1187.2827671569999,None,1187.2827671569999,None,1187.2827671569999,None,1187.2827671569999,None,1187.2827671569999,None,1187.2827671569999,None,1187.2827671569999,None,1187.2827671569999,None,1187.3627280320002,1187.869128448,1187.3627280320002,1187.869128448,1187.3627280320002,1187.869128448,None,None,down,1.5256165529999635,1187.3627280320002,None,None,None,z,0.33436171199991804,1188.962024939,None,1189.3353349449999,None,,1,0,0,,,,,104,23,2022_Sep_12_1104,templeton_exp2A_SD,2020.2.10,37.51258505026819,
,,,,,,,,,,,,,,,,,,,,,,71,0,71,0,,,,,,,,,,,,,,,,,,,,,,,,2.9000000000000004,1.6,2.9000000000000004,,,,,,,,,,,,,,,,,,,,,,,,,,,,,,,,,,,71,1095.7184228340002,4,6,3,8,0,7,1,5,0,0,6,1189.9084339830001,None,4,6,3,8,0,7,1,5,,1193.360446875,None,1193.360446875,None,1193.360446875,None,1193.360446875,None,1193.360446875,None,1193.360446875,None,1193.360446875,None,1193.360446875,None,1192.054208396,1192.5607204789999,1192.054208396,1192.5607204789999,1192.054208396,1192.5607204789999,None,None,down,2.4399259730002996,1193.360446875,None,None,None,z,0.4302040850002413,1195.866172467,None,1196.3459994579998,None,,2,0,1,,,,,104,23,2022_Sep_12_1104,templeton_exp2A_SD,2020.2.10,37.51258505026819,
,,,,,,,,,,,,,,,,,,,,,,72,0,72,0,,,,,,,,,,,,,,,,,,,,,,,,2.3000000000000003,2.4000000000000004,2.9000000000000004,,,,,,,,,,,,,,,,,,,,,,,,,,,,,,,,,,,72,1102.728168434,4,6,0,8,3,9,2,5,1,1,6,1196.919115625,None,4,6,0,8,3,9,1,5,,1199.7846794420002,None,1199.7846794420002,None,1199.7846794420002,None,1199.7846794420002,None,1199.7846794420002,None,1199.7846794420002,None,1199.7846794420002,None,1199.7846794420002,None,1199.864656749,1200.371058576,1199.864656749,1200.371058576,1199.864656749,1200.371058576,None,None,down,6.591728192000119,1199.864656749,None,None,None,z,0.27155794400005107,1206.528817557,None,1206.848613563,None,,3,0,1,,,,,104,23,2022_Sep_12_1104,templeton_exp2A_SD,2020.2.10,37.51258505026819,
,,,,,,,,,,,,,,,,,,,,,,73,0,73,0,,,,,,,,,,,,,,,,,,,,,,,,2.9000000000000004,1.6,2.9000000000000004,,,,,,,,,,,,,,,,,,,,,,,,,,,,,,,,,,,73,1113.2315252820003,4,8,3,7,2,5,0,6,0,0,0,1207.4218172690003,None,4,8,3,7,2,5,0,6,,1210.8737334850002,None,1210.8737334850002,None,1210.8737334850002,None,1210.8737334850002,None,1210.8737334850002,None,1210.8737334850002,None,1210.8737334850002,None,1210.8737334850002,None,1209.567673523,1210.0740765230003,1209.567673523,1210.0740765230003,1209.567673523,1210.0740765230003,None,None,left,0.7026247310000144,1210.8737334850002,None,None,None,z,0.19353176999993593,1211.6468595310002,None,1211.886731097,None,,4,1,2,,,,,104,23,2022_Sep_12_1104,templeton_exp2A_SD,2020.2.10,37.51258505026819,
,,,,,,,,,,,,,,,,,,,,,,74,0,74,0,,,,,,,,,,,,,,,,,,,,,,,,2.7,2.8000000000000003,3.3000000000000003,,,,,,,,,,,,,,,,,,,,,,,,,,,,,,,,,,,74,1118.2690594150004,2,5,1,9,3,6,0,8,1,1,7,1212.4598551180002,None,2,5,1,9,3,6,0,4,,1215.7252825649998,None,1215.7252825649998,None,1215.7252825649998,None,1215.7252825649998,None,1215.7252825649998,None,1215.7252825649998,None,1215.7252825649998,None,1215.7252825649998,None,1215.8052196520002,1216.311770492,1215.8052196520002,1216.311770492,1215.8052196520002,1216.311770492,None,None,down,0.7151618700004292,1215.8052196520002,None,None,None,z,0.17406668900002842,1216.578321378,None,1216.791569263,None,,5,1,2,,,,,104,23,2022_Sep_12_1104,templeton_exp2A_SD,2020.2.10,37.51258505026819,
,,,,,,,,,,,,,,,,,,,,,,75,0,75,0,,,,,,,,,,,,,,,,,,,,,,,,2.9000000000000004,1.6,2.9000000000000004,,,,,,,,,,,,,,,,,,,,,,,,,,,,,,,,,,,75,1151.5996381190002,4,8,0,7,2,5,3,6,0,0,0,1245.793926795,None,4,8,0,7,2,5,3,6,,1249.245985861,None,1249.245985861,None,1249.245985861,None,1249.245985861,None,1249.245985861,None,1249.245985861,None,1249.245985861,None,1249.245985861,None,1247.9397294740002,1248.446241063,1247.9397294740002,1248.446241063,1247.9397294740002,1248.446241063,None,None,left,0.7783762889998798,1249.245985861,None,None,None,z,0.18942171800017604,1250.098953098,None,1250.338744137,None,,6,2,3,,,,,104,23,2022_Sep_12_1104,templeton_exp2A_SD,2020.2.10,37.51258505026819,
,,,,,,,,,,,,,,,,,,,,,,76,0,76,0,,,,,,,,,,,,,,,,,,,,,,,,2.9000000000000004,1.6,2.9000000000000004,,,,,,,,,,,,,,,,,,,,,,,,,,,,,,,,,,,76,1156.7219538090003,4,6,0,8,1,9,3,7,0,1,7,1250.9119775929998,None,4,6,0,8,1,9,3,2,,1254.363959659,None,1254.363959659,None,1254.363959659,None,1254.363959659,None,1254.363959659,None,1254.363959659,None,1254.363959659,None,1254.363959659,None,1253.057801766,1253.5642999689999,1253.057801766,1253.5642999689999,1253.057801766,1253.5642999689999,None,None,down,0.7164209630000187,1254.363959659,None,None,None,z,0.1513361930001338,1255.1370047720002,None,1255.323614343,None,,7,3,4,,,,,104,23,2022_Sep_12_1104,templeton_exp2A_SD,2020.2.10,37.51258505026819,
,,,,,,,,,,,,,,,,,,,,,,77,0,77,0,,,,,,,,,,,,,,,,,,,,,,,,2.9000000000000004,1.6,2.9000000000000004,,,,,,,,,,,,,,,,,,,,,,,,,,,,,,,,,,,77,1161.7058956620003,0,7,2,9,4,8,3,5,0,1,3,1255.8967369040001,None,0,7,2,1,4,8,3,5,,1259.348742863,None,1259.348742863,None,1259.348742863,None,1259.348742863,None,1259.348742863,None,1259.348742863,None,1259.348742863,None,1259.348742863,None,1258.042582485,1258.5490914759998,1258.042582485,1258.5490914759998,1258.042582485,1258.5490914759998,None,None,left,2.2196293240003797,1259.348742863,None,None,None,x,0.21516559700012294,1261.641162888,None,1261.9077777530001,None,,8,3,5,,,,,104,23,2022_Sep_12_1104,templeton_exp2A_SD,2020.2.10,37.51258505026819,
,,,,,,,,,,,,,,,,,,,,,,78,0,78,0,,,,,,,,,,,,,,,,,,,,,,,,3.3000000000000003,3.4000000000000004,3.9000000000000004,,,,,,,,,,,,,,,,,,,,,,,,,,,,,,,,,,,78,1168.289317443,1,9,4,6,2,5,3,8,1,0,1,1262.480929464,None,1,9,4,6,2,5,3,8,,1266.3327623230002,None,1266.3327623230002,None,1266.3327623230002,None,1266.3327623230002,None,1266.3327623230002,None,1266.3327623230002,None,1266.3327623230002,None,1266.3327623230002,None,1266.4393977600002,1266.945897044,1266.4393977600002,1266.945897044,1266.4393977600002,1266.945897044,None,None,left,0.8649739079996834,1266.4393977600002,None,None,None,z,0.2519937800002481,1267.3723776470001,None,1267.6656199970002,None,,9,3,5,,,,,104,23,2022_Sep_12_1104,templeton_exp2A_SD,2020.2.10,37.51258505026819,
,,,,,,,,,,,,,,,,,,,,,,79,0,79,0,,,,,,,,,,,,,,,,,,,,,,,,2.9000000000000004,1.6,2.9000000000000004,,,,,,,,,,,,,,,,,,,,,,,,,,,,,,,,,,,79,1174.0483683510001,1,6,3,9,2,8,0,7,0,0,7,1268.2387555260002,None,1,6,3,9,2,8,0,7,,1271.690715058,None,1271.690715058,None,1271.690715058,None,1271.690715058,None,1271.690715058,None,1271.690715058,None,1271.690715058,None,1271.690715058,None,1270.384636063,1270.8910327570002,1270.384636063,1270.8910327570002,1270.384636063,1270.8910327570002,None,None,left,4.61365367999997,1271.690715058,None,None,None,z,0.24203397400015092,1276.382342847,None,1276.675516921,None,,10,4,6,,,,,104,23,2022_Sep_12_1104,templeton_exp2A_SD,2020.2.10,37.51258505026819,
,,,,,,,,,,,,,,,,,,,,,,80,0,80,0,,,,,,,,,,,,,,,,,,,,,,,,2.3000000000000003,2.4000000000000004,2.9000000000000004,,,,,,,,,,,,,,,,,,,,,,,,,,,,,,,,,,,80,1183.0577592280001,1,7,3,5,4,8,0,6,1,1,2,1277.2486626280001,None,1,7,2,5,4,8,0,6,,1280.1142398420002,None,1280.1142398420002,None,1280.1142398420002,None,1280.1142398420002,None,1280.1142398420002,None,1280.1142398420002,None,1280.1142398420002,None,1280.1142398420002,None,1280.1942133910002,1280.7006863810002,1280.1942133910002,1280.7006863810002,1280.1942133910002,1280.7006863810002,None,None,down,4.926165679000405,1280.1942133910002,None,None,None,x,0.5813966010000513,1285.1789898430002,None,1285.792041056,None,,11,4,6,,,,,104,23,2022_Sep_12_1104,templeton_exp2A_SD,2020.2.10,37.51258505026819,
,,,,,,,,,,,,,,,,,,,,,,81,0,81,0,,,,,,,,,,,,,,,,,,,,,,,,2.5,2.6,3.1,,,,,,,,,,,,,,,,,,,,,,,,,,,,,,,,,,,81,1192.1741473450002,4,5,0,6,2,8,1,7,1,1,1,1286.3652375739998,None,4,3,0,6,2,8,1,7,,1289.417395418,None,1289.417395418,None,1289.417395418,None,1289.417395418,None,1289.417395418,None,1289.417395418,None,1289.417395418,None,1289.417395418,None,1289.523981843,1290.030495082,1289.523981843,1290.030495082,1289.523981843,1290.030495082,None,None,down,0.8283965949999583,1289.523981843,None,None,None,z,0.12204068199980611,1290.4303456389998,None,1290.5902520519999,None,,12,4,6,,,,,104,23,2022_Sep_12_1104,templeton_exp2A_SD,2020.2.10,37.51258505026819,
,,,,,,,,,,,,,,,,,,,,,,82,0,82,0,,,,,,,,,,,,,,,,,,,,,,,,2.9000000000000004,1.6,2.9000000000000004,,,,,,,,,,,,,,,,,,,,,,,,,,,,,,,,,,,82,1196.9724383510002,0,5,1,8,2,9,4,7,0,1,5,1291.1634111050003,None,0,5,1,8,2,3,4,7,,1294.6154244610002,None,1294.6154244610002,None,1294.6154244610002,None,1294.6154244610002,None,1294.6154244610002,None,1294.6154244610002,None,1294.6154244610002,None,1294.6154244610002,None,1293.309219929,1293.8157278100002,1293.309219929,1293.8157278100002,1293.309219929,1293.8157278100002,None,None,left,0.7129339140001321,1294.6154244610002,None,None,None,z,0.05992138999999952,1295.3884632590002,None,1295.495095538,None,,13,4,7,,,,,104,23,2022_Sep_12_1104,templeton_exp2A_SD,2020.2.10,37.51258505026819,
,,,,,,,,,,,,,,,,,,,,,,83,0,83,0,,,,,,,,,,,,,,,,,,,,,,,,2.9000000000000004,1.6,2.9000000000000004,,,,,,,,,,,,,,,,,,,,,,,,,,,,,,,,,,,83,1201.8766176800004,1,6,2,9,0,7,3,5,0,1,5,1296.0681675750002,None,1,6,2,9,0,4,3,5,,1299.5200619739999,None,1299.5200619739999,None,1299.5200619739999,None,1299.5200619739999,None,1299.5200619739999,None,1299.5200619739999,None,1299.5200619739999,None,1299.5200619739999,None,1298.2140681639999,1298.7205016819998,1298.2140681639999,1298.7205016819998,1298.2140681639999,1298.7205016819998,None,None,down,0.7442978889998813,1299.5200619739999,None,None,None,z,0.20049261200028923,1300.3198905120003,None,1300.5597998140001,None,,14,5,8,,,,,104,23,2022_Sep_12_1104,templeton_exp2A_SD,2020.2.10,37.51258505026819,
,,,,,,,,,,,,,,,,,,,,,,84,0,84,0,,,,,,,,,,,,,,,,,,,,,,,,2.9000000000000004,1.6,2.9000000000000004,,,,,,,,,,,,,,,,,,,,,,,,,,,,,,,,,,,84,1206.9421154800002,2,8,4,9,0,7,3,5,0,0,0,1301.13295724,None,2,8,4,9,0,7,3,5,,1304.584924581,None,1304.584924581,None,1304.584924581,None,1304.584924581,None,1304.584924581,None,1304.584924581,None,1304.584924581,None,1304.584924581,None,1303.278813373,1303.7852002710001,1303.278813373,1303.7852002710001,1303.278813373,1303.7852002710001,None,None,left,0.6954432030001954,1304.584924581,None,None,None,z,0.09843309600000794,1305.357942433,None,1305.4912679570002,None,,15,6,9,,,,,104,23,2022_Sep_12_1104,templeton_exp2A_SD,2020.2.10,37.51258505026819,
,,,,,,,,,,,,,,,,,,,,,,85,0,85,0,,,,,,,,,,,,,,,,,,,,,,,,2.9,3.0,3.5,,,,,,,,,,,,,,,,,,,,,,,,,,,,,,,,,,,85,1211.874103268,0,7,2,8,1,6,3,5,1,1,4,1306.064416353,None,0,7,2,8,4,6,3,5,,1309.5164518309998,None,1309.5164518309998,None,1309.5164518309998,None,1309.5164518309998,None,1309.5164518309998,None,1309.5164518309998,None,1309.5164518309998,None,1309.5164518309998,None,1309.6230371760003,1310.129538017,1309.6230371760003,1310.129538017,1309.6230371760003,1310.129538017,None,None,down,1.009343822000119,1309.6230371760003,None,None,None,z,0.1990680170001724,1310.689317708,None,1310.9292449160002,None,,16,6,9,,,,,104,23,2022_Sep_12_1104,templeton_exp2A_SD,2020.2.10,37.51258505026819,
,,,,,,,,,,,,,,,,,,,,,,86,0,86,0,,,,,,,,,,,,,,,,,,,,,,,,3.3000000000000003,3.4000000000000004,3.9000000000000004,,,,,,,,,,,,,,,,,,,,,,,,,,,,,,,,,,,86,1217.311267259,3,6,1,7,2,5,4,8,1,0,2,1311.502281731,None,3,6,1,7,2,5,4,8,,1315.3542426909999,None,1315.3542426909999,None,1315.3542426909999,None,1315.3542426909999,None,1315.3542426909999,None,1315.3542426909999,None,1315.3542426909999,None,1315.3542426909999,None,1315.4608108000002,1315.9673263569998,1315.4608108000002,1315.9673263569998,1315.4608108000002,1315.9673263569998,None,None,down,3.7555660889997853,1315.4608108000002,None,None,None,x,0.1836497720000807,1319.272738998,None,1319.485968294,None,,17,6,9,,,,,104,23,2022_Sep_12_1104,templeton_exp2A_SD,2020.2.10,37.51258505026819,
,,,,,,,,,,,,,,,,,,,,,,87,0,87,0,,,,,,,,,,,,,,,,,,,,,,,,1.7,1.8,2.3,,,,,,,,,,,,,,,,,,,,,,,,,,,,,,,,,,,87,1225.8687532010003,0,8,1,5,3,6,4,7,1,0,4,1320.0590813929998,None,0,8,1,5,3,6,4,7,,1322.3115858380002,None,1322.3115858380002,None,1322.3115858380002,None,1322.3115858380002,None,1322.3115858380002,None,1322.3115858380002,None,1322.3115858380002,None,1322.3115858380002,None,1322.418074279,1322.9246489920001,1322.418074279,1322.9246489920001,1322.418074279,1322.9246489920001,None,None,left,1.0062971590000416,1322.418074279,None,None,None,z,0.13187884499984648,1323.484502536,None,1323.6443858349999,None,,18,6,9,,,,,104,23,2022_Sep_12_1104,templeton_exp2A_SD,2020.2.10,37.51258505026819,
,,,,,,,,,,,,,,,,,,,,,,88,0,88,0,,,,,,,,,,,,,,,,,,,,,,,,2.3000000000000003,2.4000000000000004,2.9000000000000004,,,,,,,,,,,,,,,,,,,,,,,,,,,,,,,,,,,88,1230.026380405,2,8,4,7,3,5,1,9,1,1,1,1324.2175187809999,None,2,0,4,7,3,5,1,9,,1327.0830733379998,None,1327.0830733379998,None,1327.0830733379998,None,1327.0830733379998,None,1327.0830733379998,None,1327.0830733379998,None,1327.0830733379998,None,1327.0830733379998,None,1327.163100068,1327.6695275440002,1327.163100068,1327.6695275440002,1327.163100068,1327.6695275440002,None,None,left,0.965268068000114,1327.163100068,None,None,None,z,0.1257230870000967,1328.202647174,None,1328.3626487780002,None,,19,6,9,,,,,104,23,2022_Sep_12_1104,templeton_exp2A_SD,2020.2.10,37.51258505026819,
,,,,,,,,,,,,,,,,,,,,,,89,0,89,0,,,,,,,,,,,,,,,,,,,,,,,,2.9000000000000004,1.6,2.9000000000000004,,,,,,,,,,,,,,,,,,,,,,,,,,,,,,,,,,,89,1234.745237087,4,7,0,8,3,5,1,6,0,0,0,1328.93574192,None,4,7,0,8,3,5,1,6,,1332.3877392580002,None,1332.3877392580002,None,1332.3877392580002,None,1332.3877392580002,None,1332.3877392580002,None,1332.3877392580002,None,1332.3877392580002,None,1332.3877392580002,None,1331.081607866,1331.588112156,1331.081607866,1331.588112156,1331.081607866,1331.588112156,None,None,left,0.8606314369999382,1332.3877392580002,None,None,None,z,0.13565808200019092,1333.3207179710002,None,1333.507295164,None,,20,7,10,,,,,104,23,2022_Sep_12_1104,templeton_exp2A_SD,2020.2.10,37.51258505026819,
,,,,,,,,,,,,,,,,,,,,,,90,0,90,0,,,,,,,,,,,,,,,,,,,,,,,,2.9000000000000004,1.6,2.9000000000000004,,,,,,,,,,,,,,,,,,,,,,,,,,,,,,,,,,,90,1280.977661154,3,9,0,6,4,5,1,8,0,1,6,1375.1715216890002,None,3,9,0,6,4,5,2,8,,1378.623582663,None,1378.623582663,None,1378.623582663,None,1378.623582663,None,1378.623582663,None,1378.623582663,None,1378.623582663,None,1378.623582663,None,1377.317426134,1377.8238965660003,1377.317426134,1377.8238965660003,1377.317426134,1377.8238965660003,None,None,down,1.7767912489998707,1378.623582663,None,None,None,z,0.24144201199987947,1380.462900953,None,1380.7560675989998,None,,21,8,11,,,,,104,23,2022_Sep_12_1104,templeton_exp2A_SD,2020.2.10,37.51258505026819,
,,,,,,,,,,,,,,,,,,,,,,91,0,91,0,,,,,,,,,,,,,,,,,,,,,,,,1.5,1.6,2.1,,,,,,,,,,,,,,,,,,,,,,,,,,,,,,,,,,,91,1287.138848729,1,9,2,8,0,7,3,5,1,1,1,1381.3292489750002,None,1,4,2,8,0,7,3,5,,1383.3950781849999,None,1383.3950781849999,None,1383.3950781849999,None,1383.3950781849999,None,1383.3950781849999,None,1383.3950781849999,None,1383.3950781849999,None,1383.3950781849999,None,1383.4750433200002,1383.9815589720001,1383.4750433200002,1383.9815589720001,1383.4750433200002,1383.9815589720001,None,None,down,0.9893235370000184,1383.4750433200002,None,None,None,z,0.21904228800030978,1384.541338092,None,1384.807932134,None,,22,8,11,,,,,104,23,2022_Sep_12_1104,templeton_exp2A_SD,2020.2.10,37.51258505026819,
,,,,,,,,,,,,,,,,,,,,,,92,0,92,0,,,,,,,,,,,,,,,,,,,,,,,,2.9000000000000004,1.6,2.9000000000000004,,,,,,,,,,,,,,,,,,,,,,,,,,,,,,,,,,,92,1291.1901006800003,3,9,2,7,1,5,0,8,0,0,2,1385.380997196,None,3,9,2,7,1,5,0,8,,1388.8330617299998,None,1388.8330617299998,None,1388.8330617299998,None,1388.8330617299998,None,1388.8330617299998,None,1388.8330617299998,None,1388.8330617299998,None,1388.8330617299998,None,1387.526848948,1388.033349661,1387.526848948,1388.033349661,1387.526848948,1388.033349661,None,None,left,0.7112976700000218,1388.8330617299998,None,None,None,z,0.114306576999752,1389.606077936,None,1389.7660371430002,None,,23,9,12,,,,,104,23,2022_Sep_12_1104,templeton_exp2A_SD,2020.2.10,37.51258505026819,
,,,,,,,,,,,,,,,,,,,,,,93,0,93,0,,,,,,,,,,,,,,,,,,,,,,,,2.9000000000000004,1.6,2.9000000000000004,,,,,,,,,,,,,,,,,,,,,,,,,,,,,,,,,,,93,1296.1482716600003,4,9,3,8,2,5,0,7,0,0,6,1390.3391141930001,None,4,9,3,8,2,5,0,7,,1393.791165878,None,1393.791165878,None,1393.791165878,None,1393.791165878,None,1393.791165878,None,1393.791165878,None,1393.791165878,None,1393.791165878,None,1392.484951377,1392.99144609,1392.484951377,1392.99144609,1392.484951377,1392.99144609,None,None,left,0.5611030499999288,1393.791165878,None,None,None,z,0.16144305000034365,1394.4309346989999,None,1394.6441658940003,None,,24,10,13,,,,,104,23,2022_Sep_12_1104,templeton_exp2A_SD,2020.2.10,37.51258505026819,
,,,,,,,,,,,,,,,,,,,,,,94,0,94,0,,,,,,,,,,,,,,,,,,,,,,,,2.9000000000000004,1.6,2.9000000000000004,,,,,,,,,,,,,,,,,,,,,,,,,,,,,,,,,,,94,1301.0269294470004,1,8,2,7,0,9,4,6,0,0,3,1395.217311108,None,1,8,2,7,0,9,4,6,,1398.669280317,None,1398.669280317,None,1398.669280317,None,1398.669280317,None,1398.669280317,None,1398.669280317,None,1398.669280317,None,1398.669280317,None,1397.36315092,1397.8696231879999,1397.36315092,1397.8696231879999,1397.36315092,1397.8696231879999,None,None,down,2.9870435429997997,1398.669280317,None,None,None,x,0.2975148599998647,1401.734858752,None,1402.0812786239999,None,,25,10,14,,,,,104,23,2022_Sep_12_1104,templeton_exp2A_SD,2020.2.10,37.51258505026819,
,,,,,,,,,,,,,,,,,,,,,,95,0,95,0,,,,,,,,,,,,,,,,,,,,,,,,2.9000000000000004,1.6,2.9000000000000004,,,,,,,,,,,,,,,,,,,,,,,,,,,,,,,,,,,95,1308.464155868,2,7,1,9,3,6,0,8,0,1,4,1402.6545132810002,None,2,7,1,9,4,6,0,8,,1406.106477892,None,1406.106477892,None,1406.106477892,None,1406.106477892,None,1406.106477892,None,1406.106477892,None,1406.106477892,None,1406.106477892,None,1404.800389772,1405.3067764359998,1404.800389772,1405.3067764359998,1404.800389772,1405.3067764359998,None,None,down,0.7258832489997076,1406.106477892,None,None,None,z,0.14222377800024333,1406.906160164,None,1407.0927679390002,None,,26,11,15,,,,,104,23,2022_Sep_12_1104,templeton_exp2A_SD,2020.2.10,37.51258505026819,
,,,,,,,,,,,,,,,,,,,,,,96,0,96,0,,,,,,,,,,,,,,,,,,,,,,,,1.9,2.0,2.5,,,,,,,,,,,,,,,,,,,,,,,,,,,,,,,,,,,96,1313.4753309710004,2,9,1,7,0,8,3,5,1,0,5,1407.66587032,None,2,9,1,7,0,8,3,5,,1410.1316593669999,None,1410.1316593669999,None,1410.1316593669999,None,1410.1316593669999,None,1410.1316593669999,None,1410.1316593669999,None,1410.1316593669999,None,1410.1316593669999,None,1410.211574074,1410.7181246190003,1410.211574074,1410.7181246190003,1410.211574074,1410.7181246190003,None,None,left,1.492701856000167,1410.211574074,None,None,None,z,0.1066167270000733,1411.757695628,None,1411.8909544910002,None,,27,11,15,,,,,104,23,2022_Sep_12_1104,templeton_exp2A_SD,2020.2.10,37.51258505026819,
,,,,,,,,,,,,,,,,,,,,,,97,0,97,0,,,,,,,,,,,,,,,,,,,,,,,,2.3000000000000003,2.4000000000000004,2.9000000000000004,,,,,,,,,,,,,,,,,,,,,,,,,,,,,,,,,,,97,1318.273102389,2,9,4,8,1,7,0,6,1,0,3,1412.464093437,None,2,9,4,8,1,7,0,6,,1415.329671074,None,1415.329671074,None,1415.329671074,None,1415.329671074,None,1415.329671074,None,1415.329671074,None,1415.329671074,None,1415.329671074,None,1415.4095614940002,1415.9161300229998,1415.4095614940002,1415.9161300229998,1415.4095614940002,1415.9161300229998,None,None,down,1.2068184879999535,1415.4095614940002,None,None,None,z,0.07920584000021336,1416.689132246,None,1416.7957555870003,None,,28,11,15,,,,,104,23,2022_Sep_12_1104,templeton_exp2A_SD,2020.2.10,37.51258505026819,
,,,,,,,,,,,,,,,,,,,,,,98,0,98,0,,,,,,,,,,,,,,,,,,,,,,,,2.7,2.8000000000000003,3.3000000000000003,,,,,,,,,,,,,,,,,,,,,,,,,,,,,,,,,,,98,1323.1780605590002,4,5,1,8,0,7,3,9,1,1,0,1417.368867579,None,2,5,1,8,0,7,3,9,,1420.6343633420001,None,1420.6343633420001,None,1420.6343633420001,None,1420.6343633420001,None,1420.6343633420001,None,1420.6343633420001,None,1420.6343633420001,None,1420.6343633420001,None,1420.7142986879999,1421.220699641,1420.7142986879999,1421.220699641,1420.7142986879999,1421.220699641,None,None,down,1.0139747799998986,1420.7142986879999,None,None,None,z,0.12119733099962104,1421.8071913940003,None,1421.9671727200002,None,,29,11,15,,,,,104,23,2022_Sep_12_1104,templeton_exp2A_SD,2020.2.10,37.51258505026819,
,,,,,,,,,,,,,,,,,,,,,,99,0,99,0,,,,,,,,,,,,,,,,,,,,,,,,1.7,1.8,2.3,,,,,,,,,,,,,,,,,,,,,,,,,,,,,,,,,,,99,1328.3497377780004,0,9,3,7,4,8,1,6,1,1,1,1422.540227346,None,0,2,3,7,4,8,1,6,,1424.7927706720002,None,1424.7927706720002,None,1424.7927706720002,None,1424.7927706720002,None,1424.7927706720002,None,1424.7927706720002,None,1424.7927706720002,None,1424.7927706720002,None,1424.8993989609999,1425.405829061,1424.8993989609999,1425.405829061,1424.8993989609999,1425.405829061,None,None,down,1.0129155690001426,1424.8993989609999,None,None,None,z,0.15471468400028243,1425.965655856,None,1426.152176043,None,,30,11,15,,,,,104,23,2022_Sep_12_1104,templeton_exp2A_SD,2020.2.10,37.51258505026819,
,,,,,,,,,,,,,,,,,,,,,,100,0,100,0,,,,,,,,,,,,,,,,,,,,,,,,1.5,1.6,2.1,,,,,,,,,,,,,,,,,,,,,,,,,,,,,,,,,,,100,1332.5348976530004,2,5,4,7,1,9,3,8,1,1,3,1426.725308127,None,2,5,4,0,1,9,3,8,,1428.791243262,None,1428.791243262,None,1428.791243262,None,1428.791243262,None,1428.791243262,None,1428.791243262,None,1428.791243262,None,1428.791243262,None,1428.871178555,1429.3776875439999,1428.871178555,1429.3776875439999,1428.871178555,1429.3776875439999,None,None,down,2.18518696000001,1428.871178555,None,None,None,x,0.13799772999982451,1431.110375362,None,1431.2969448520003,None,,31,11,15,,,,,104,23,2022_Sep_12_1104,templeton_exp2A_SD,2020.2.10,37.51258505026819,
,,,,,,,,,,,,,,,,,,,,,,101,0,101,0,,,,,,,,,,,,,,,,,,,,,,,,1.7,1.8,2.3,,,,,,,,,,,,,,,,,,,,,,,,,,,,,,,,,,,101,1337.6792536990001,2,6,0,9,3,5,4,8,1,1,3,1431.870081652,None,2,6,0,1,3,5,4,8,,1434.122530086,None,1434.122530086,None,1434.122530086,None,1434.122530086,None,1434.122530086,None,1434.122530086,None,1434.122530086,None,1434.122530086,None,1434.2292622159998,1434.7355976210001,1434.2292622159998,1434.7355976210001,1434.2292622159998,1434.7355976210001,None,None,down,0.8751171720000457,1434.2292622159998,None,None,None,z,0.1342245890000413,1435.1620940359999,None,1435.348724389,None,,32,11,15,,,,,104,23,2022_Sep_12_1104,templeton_exp2A_SD,2020.2.10,37.51258505026819,
,,,,,,,,,,,,,,,,,,,,,,102,0,102,0,,,,,,,,,,,,,,,,,,,,,,,,3.1,3.2,3.7,,,,,,,,,,,,,,,,,,,,,,,,,,,,,,,,,,,102,1341.7310206830002,3,8,0,5,1,6,4,9,1,1,7,1435.921837382,None,3,8,0,5,1,6,4,2,,1439.587084228,None,1439.587084228,None,1439.587084228,None,1439.587084228,None,1439.587084228,None,1439.587084228,None,1439.587084228,None,1439.587084228,None,1439.667134967,1440.1735909570002,1439.667134967,1440.1735909570002,1439.667134967,1440.1735909570002,None,None,down,1.1972465959997862,1439.667134967,None,None,None,x,0.19240957100009837,1440.919976617,None,1441.159898667,None,,33,11,15,,,,,104,23,2022_Sep_12_1104,templeton_exp2A_SD,2020.2.10,37.51258505026819,
,,,,,,,,,,,,,,,,,,,,,,103,0,103,0,,,,,,,,,,,,,,,,,,,,,,,,2.9000000000000004,1.6,2.9000000000000004,,,,,,,,,,,,,,,,,,,,,,,,,,,,,,,,,,,103,1347.541994394,2,6,4,9,0,8,3,5,0,1,4,1441.7330045190001,None,2,6,4,9,1,8,3,5,,1445.184996005,None,1445.184996005,None,1445.184996005,None,1445.184996005,None,1445.184996005,None,1445.184996005,None,1445.184996005,None,1445.184996005,None,1443.8788726399998,1444.3852912390003,1443.8788726399998,1444.3852912390003,1443.8788726399998,1444.3852912390003,None,None,down,1.1033658669998658,1445.184996005,None,None,None,z,0.1544745729997885,1446.357929615,None,1446.5445068029999,None,,34,12,16,,,,,104,23,2022_Sep_12_1104,templeton_exp2A_SD,2020.2.10,37.51258505026819,
,,,,,,,,,,,,,,,,,,,,,,104,0,104,0,,,,,,,,,,,,,,,,,,,,,,,,2.9000000000000004,1.6,2.9000000000000004,,,,,,,,,,,,,,,,,,,,,,,,,,,,,,,,,,,104,1352.926889406,3,7,2,6,0,8,1,5,0,1,6,1447.117645622,None,3,7,2,6,0,8,4,5,,1450.5696208690001,None,1450.5696208690001,None,1450.5696208690001,None,1450.5696208690001,None,1450.5696208690001,None,1450.5696208690001,None,1450.5696208690001,None,1450.5696208690001,None,1449.263498153,1449.769920876,1449.263498153,1449.769920876,1449.263498153,1449.769920876,None,None,down,1.726736406999862,1450.5696208690001,None,None,None,z,0.5567376389999481,1452.3556460680002,None,1452.9420944120002,None,,35,13,17,,,,,104,23,2022_Sep_12_1104,templeton_exp2A_SD,2020.2.10,37.51258505026819,
,,,,,,,,,,,,,,,,,,,,,,105,0,105,0,,,,,,,,,,,,,,,,,,,,,,,,2.3000000000000003,2.4000000000000004,2.9000000000000004,,,,,,,,,,,,,,,,,,,,,,,,,,,,,,,,,,,105,1360.1075251320003,2,5,1,7,3,9,0,8,1,1,3,1454.301503103,None,2,5,1,4,3,9,0,8,,1457.1671734400002,None,1457.1671734400002,None,1457.1671734400002,None,1457.1671734400002,None,1457.1671734400002,None,1457.1671734400002,None,1457.1671734400002,None,1457.1671734400002,None,1457.2471215649998,1457.753610182,1457.2471215649998,1457.753610182,1457.2471215649998,1457.753610182,None,None,down,0.9692545589996371,1457.2471215649998,None,None,None,z,0.1857344129998637,1458.2866953020002,None,1458.499943406,None,,36,13,17,,,,,104,23,2022_Sep_12_1104,templeton_exp2A_SD,2020.2.10,37.51258505026819,
,,,,,,,,,,,,,,,,,,,,,,106,0,106,0,,,,,,,,,,,,,,,,,,,,,,,,2.3000000000000003,2.4000000000000004,2.9000000000000004,,,,,,,,,,,,,,,,,,,,,,,,,,,,,,,,,,,106,1364.8828361280002,4,5,0,7,2,8,3,6,1,1,5,1459.073073261,None,4,5,0,7,2,1,3,6,,1461.9386406510002,None,1461.9386406510002,None,1461.9386406510002,None,1461.9386406510002,None,1461.9386406510002,None,1461.9386406510002,None,1461.9386406510002,None,1461.9386406510002,None,1462.018590054,1462.5251410740002,1462.018590054,1462.5251410740002,1462.018590054,1462.5251410740002,None,None,left,2.341776745000061,1462.018590054,None,None,None,x,0.2626326289996541,1464.4177538879999,None,1464.7109763419999,None,,37,13,17,,,,,104,23,2022_Sep_12_1104,templeton_exp2A_SD,2020.2.10,37.51258505026819,
,,,,,,,,,,,,,,,,,,,,,,107,0,107,0,,,,,,,,,,,,,,,,,,,,,,,,2.9000000000000004,1.6,2.9000000000000004,,,,,,,,,,,,,,,,,,,,,,,,,,,,,,,,,,,107,1371.093122919,4,6,3,7,2,8,1,9,0,1,7,1465.2840507690003,None,4,6,3,7,2,8,1,0,,1468.7360866489998,None,1468.7360866489998,None,1468.7360866489998,None,1468.7360866489998,None,1468.7360866489998,None,1468.7360866489998,None,1468.7360866489998,None,1468.7360866489998,None,1467.429943359,1467.9363766310003,1467.429943359,1467.9363766310003,1467.429943359,1467.9363766310003,None,None,left,1.1602923820000797,1468.7360866489998,None,None,None,z,0.1581480790000569,1469.9622365270002,None,1470.1488553909999,None,,38,13,18,,,,,104,23,2022_Sep_12_1104,templeton_exp2A_SD,2020.2.10,37.51258505026819,
,,,,,,,,,,,,,,,,,,,,,,108,0,108,0,,,,,,,,,,,,,,,,,,,,,,,,2.9000000000000004,1.6,2.9000000000000004,,,,,,,,,,,,,,,,,,,,,,,,,,,,,,,,,,,108,1376.5313194210003,2,6,1,8,3,5,0,9,0,1,4,1470.721948108,None,2,6,1,8,4,5,0,9,,1474.174043471,None,1474.174043471,None,1474.174043471,None,1474.174043471,None,1474.174043471,None,1474.174043471,None,1474.174043471,None,1474.174043471,None,1472.8678461580002,1473.37434958,1472.8678461580002,1473.37434958,1472.8678461580002,1473.37434958,None,None,down,1.0103528220001863,1474.174043471,None,None,None,z,0.14408113599984063,1475.240303909,None,1475.4269202149999,None,,39,14,19,,,,,104,23,2022_Sep_12_1104,templeton_exp2A_SD,2020.2.10,37.51258505026819,
,,,,,,,,,,,,,,,,,,,,,,109,0,109,0,,,,,,,,,,,,,,,,,,,,,,,,2.9000000000000004,1.6,2.9000000000000004,,,,,,,,,,,,,,,,,,,,,,,,,,,,,,,,,,,109,1381.8088357310003,1,8,2,6,4,5,3,9,0,1,4,1476.000017295,None,1,8,2,6,0,5,3,9,,1479.4520178970001,None,1479.4520178970001,None,1479.4520178970001,None,1479.4520178970001,None,1479.4520178970001,None,1479.4520178970001,None,1479.4520178970001,None,1479.4520178970001,None,1478.1458322409999,1478.6523477649998,1478.1458322409999,1478.6523477649998,1478.1458322409999,1478.6523477649998,None,None,down,0.5323121489996083,1479.4520178970001,None,None,None,z,0.23396609599967633,1480.038410263,None,1480.3050323460002,None,,40,15,20,,,,,104,23,2022_Sep_12_1104,templeton_exp2A_SD,2020.2.10,37.51258505026819,
,,,,,,,,,,,,,,,,,,,,,,110,0,110,0,,,,,,,,,,,,,,,,,,,,,,,,3.3000000000000003,3.4000000000000004,3.9000000000000004,,,,,,,,,,,,,,,,,,,,,,,,,,,,,,,,,,,110,1386.6870684730002,4,6,2,8,1,5,0,9,1,1,6,1480.8781851520002,None,4,6,2,8,1,5,3,9,,1484.730047307,None,1484.730047307,None,1484.730047307,None,1484.730047307,None,1484.730047307,None,1484.730047307,None,1484.730047307,None,1484.730047307,None,1484.836647223,1485.3431054860002,1484.836647223,1485.3431054860002,1484.836647223,1485.3431054860002,None,None,down,0.939730567999959,1484.836647223,None,None,None,z,0.21481224199987992,1485.8495317480001,None,1486.11614165,None,,41,15,20,,,,,104,23,2022_Sep_12_1104,templeton_exp2A_SD,2020.2.10,37.51258505026819,
,,,,,,,,,,,,,,,,,,,,,,111,0,111,0,,,,,,,,,,,,,,,,,,,,,,,,2.9000000000000004,1.6,2.9000000000000004,,,,,,,,,,,,,,,,,,,,,,,,,,,,,,,,,,,111,1392.4988899240002,4,8,2,7,0,6,1,9,0,0,3,1486.689219975,None,4,8,2,7,0,6,1,9,,1490.141277665,None,1490.141277665,None,1490.141277665,None,1490.141277665,None,1490.141277665,None,1490.141277665,None,1490.141277665,None,1490.141277665,None,1488.83518005,1489.341591929,1488.83518005,1489.341591929,1488.83518005,1489.341591929,None,None,left,0.9710913029998665,1490.141277665,None,None,None,z,0.20349066800008586,1491.18090064,None,1491.4208722439998,None,,42,16,21,,,,,104,23,2022_Sep_12_1104,templeton_exp2A_SD,2020.2.10,37.51258505026819,
,,,,,,,,,,,,,,,,,,,,,,112,0,112,0,,,,,,,,,,,,,,,,,,,,,,,,1.9,2.0,2.5,,,,,,,,,,,,,,,,,,,,,,,,,,,,,,,,,,,112,1397.8040413520002,3,7,0,6,1,8,4,9,1,1,5,1491.993957788,None,3,7,0,6,1,2,4,9,,1494.4596205450002,None,1494.4596205450002,None,1494.4596205450002,None,1494.4596205450002,None,1494.4596205450002,None,1494.4596205450002,None,1494.4596205450002,None,1494.4596205450002,None,1494.539631475,1495.046149506,1494.539631475,1495.046149506,1494.539631475,1495.046149506,None,None,left,2.1487009639999997,1494.539631475,None,None,None,x,0.15231485799995426,1496.7520966040001,None,1496.9387188770002,None,,43,16,21,,,,,104,23,2022_Sep_12_1104,templeton_exp2A_SD,2020.2.10,37.51258505026819,
,,,,,,,,,,,,,,,,,,,,,,113,0,113,0,,,,,,,,,,,,,,,,,,,,,,,,2.3000000000000003,2.4000000000000004,2.9000000000000004,,,,,,,,,,,,,,,,,,,,,,,,,,,,,,,,,,,113,1403.3204078120002,4,9,3,5,1,8,2,6,1,1,2,1497.511867746,None,4,9,0,5,1,8,2,6,,1500.377442393,None,1500.377442393,None,1500.377442393,None,1500.377442393,None,1500.377442393,None,1500.377442393,None,1500.377442393,None,1500.377442393,None,1500.4573315960001,1500.9639022289998,1500.4573315960001,1500.9639022289998,1500.4573315960001,1500.9639022289998,None,None,down,1.015045999999984,1500.4573315960001,None,None,None,z,0.1780456339997727,1501.550341611,None,1501.7636109740001,None,,44,16,21,,,,,104,23,2022_Sep_12_1104,templeton_exp2A_SD,2020.2.10,37.51258505026819,
,,,,,,,,,,,,,,,,,,,,,,114,0,114,0,,,,,,,,,,,,,,,,,,,,,,,,2.9000000000000004,1.6,2.9000000000000004,,,,,,,,,,,,,,,,,,,,,,,,,,,,,,,,,,,114,1408.1462140780004,2,9,1,8,0,6,4,7,0,1,4,1502.3366690550001,None,2,9,1,8,3,6,4,7,,1505.7886682960002,None,1505.7886682960002,None,1505.7886682960002,None,1505.7886682960002,None,1505.7886682960002,None,1505.7886682960002,None,1505.7886682960002,None,1505.7886682960002,None,1504.482568416,1504.989034226,1504.482568416,1504.989034226,1504.482568416,1504.989034226,None,None,left,1.387718421000045,1505.7886682960002,None,None,None,x,0.1935278180003479,1507.254858582,None,1507.4947641590002,None,,45,16,22,,,,,104,23,2022_Sep_12_1104,templeton_exp2A_SD,2020.2.10,37.51258505026819,
,,,,,,,,,,,,,,,,,,,,,,115,0,115,0,,,,,,,,,,,,,,,,,,,,,,,,2.3000000000000003,2.4000000000000004,2.9000000000000004,,,,,,,,,,,,,,,,,,,,,,,,,,,,,,,,,,,115,1413.877038693,3,5,0,8,1,6,2,9,1,0,5,1508.067900517,None,3,5,0,8,1,6,2,9,,1510.933459255,None,1510.933459255,None,1510.933459255,None,1510.933459255,None,1510.933459255,None,1510.933459255,None,1510.933459255,None,1510.933459255,None,1511.0134184449998,1511.519860843,1511.0134184449998,1511.519860843,1511.0134184449998,1511.519860843,None,None,left,1.410962219999874,1511.0134184449998,None,None,None,z,0.1528496500000074,1512.479537967,None,1512.6661406540002,None,,46,16,22,,,,,104,23,2022_Sep_12_1104,templeton_exp2A_SD,2020.2.10,37.51258505026819,
,,,,,,,,,,,,,,,,,,,,,,116,0,116,0,,,,,,,,,,,,,,,,,,,,,,,,2.9000000000000004,1.6,2.9000000000000004,,,,,,,,,,,,,,,,,,,,,,,,,,,,,,,,,,,116,1419.048437243,2,7,4,8,3,5,1,6,0,1,5,1513.2391755500003,None,2,7,4,8,3,0,1,6,,1516.69126494,None,1516.69126494,None,1516.69126494,None,1516.69126494,None,1516.69126494,None,1516.69126494,None,1516.69126494,None,1516.69126494,None,1515.3850911220002,1515.8915413270001,1515.3850911220002,1515.8915413270001,1515.3850911220002,1515.8915413270001,None,None,down,1.9970995670000775,1516.69126494,None,None,None,z,0.368549468999845,1518.7438211980002,None,1519.143683624,None,,47,17,23,,,,,104,23,2022_Sep_12_1104,templeton_exp2A_SD,2020.2.10,37.51258505026819,
,,,,,,,,,,,,,,,,,,,,,,117,0,117,0,,,,,,,,,,,,,,,,,,,,,,,,1.9,2.0,2.5,,,,,,,,,,,,,,,,,,,,,,,,,,,,,,,,,,,117,1425.5264861320002,1,7,3,6,0,8,2,5,1,0,4,1519.71678527,None,1,7,3,6,0,8,2,5,,1522.1825309270002,None,1522.1825309270002,None,1522.1825309270002,None,1522.1825309270002,None,1522.1825309270002,None,1522.1825309270002,None,1522.1825309270002,None,1522.1825309270002,None,1522.2624892160002,1522.768938144,1522.2624892160002,1522.768938144,1522.2624892160002,1522.768938144,None,None,left,1.7378785369996876,1522.2624892160002,None,None,None,z,0.3492702339999596,1524.0751056069998,None,1524.474955695,None,,48,17,23,,,,,104,23,2022_Sep_12_1104,templeton_exp2A_SD,2020.2.10,37.51258505026819,
,,,,,,,,,,,,,,,,,,,,,,118,0,118,0,,,,,,,,,,,,,,,,,,,,,,,,2.9000000000000004,1.6,2.9000000000000004,,,,,,,,,,,,,,,,,,,,,,,,,,,,,,,,,,,118,1430.8574945680002,2,8,1,9,0,7,3,5,0,0,3,1525.048098409,None,2,8,1,9,0,7,3,5,,1528.500132702,None,1528.500132702,None,1528.500132702,None,1528.500132702,None,1528.500132702,None,1528.500132702,None,1528.500132702,None,1528.500132702,None,1527.1939654520002,1527.700443533,1527.1939654520002,1527.700443533,1527.1939654520002,1527.700443533,None,None,left,0.8442229510001198,1528.500132702,None,None,None,z,0.1619155769999452,1529.406421194,None,1529.619627301,None,,49,18,24,1,0.75,0,,104,23,2022_Sep_12_1104,templeton_exp2A_SD,2020.2.10,37.51258505026819,
,,,,,,,,,,,,,,,,,,,,,,119,0,119,0,,,,,,,,,,,,,,,,,,,,,,,,3.3000000000000003,3.4000000000000004,3.9000000000000004,,,,,,,,,,,,,,,,,,,,,,,,,,,,,,,,,,,119,1436.0023808800001,4,9,1,6,0,8,3,7,1,1,7,1530.1928176400002,None,4,9,1,6,0,8,3,2,,1534.0446891440001,None,1534.0446891440001,None,1534.0446891440001,None,1534.0446891440001,None,1534.0446891440001,None,1534.0446891440001,None,1534.0446891440001,None,1534.0446891440001,None,1534.151337504,1534.65776199,1534.151337504,1534.65776199,1534.151337504,1534.65776199,None,None,left,1.8090398009999262,1534.151337504,None,None,None,z,0.1430940330001249,1536.0172875580001,None,1536.203799843,None,,0,0,0,,,,,104,23,2022_Sep_12_1104,templeton_exp2A_SD,2020.2.10,37.51258505026819,
,,,,,,,,,,,,,,,,,,,,,,120,0,120,0,,,,,,,,,,,,,,,,,,,,,,,,2.9000000000000004,1.6,2.9000000000000004,,,,,,,,,,,,,,,,,,,,,,,,,,,,,,,,,,,120,1449.791998137,2,5,3,6,1,7,4,9,0,0,0,1543.9875460120002,None,2,5,3,6,1,7,4,9,,1547.4395904809999,None,1547.4395904809999,None,1547.4395904809999,None,1547.4395904809999,None,1547.4395904809999,None,1547.4395904809999,None,1547.4395904809999,None,1547.4395904809999,None,1546.133441676,1546.639892661,1546.133441676,1546.639892661,1546.133441676,1546.639892661,None,None,left,0.5527820639999845,1547.4395904809999,None,None,None,z,0.12372700300011275,1548.0526462540001,None,1548.212656058,None,,1,1,1,,,,,104,23,2022_Sep_12_1104,templeton_exp2A_SD,2020.2.10,37.51258505026819,
,,,,,,,,,,,,,,,,,,,,,,121,0,121,0,,,,,,,,,,,,,,,,,,,,,,,,2.9000000000000004,1.6,2.9000000000000004,,,,,,,,,,,,,,,,,,,,,,,,,,,,,,,,,,,121,1454.595266882,3,5,1,6,0,8,4,9,0,1,4,1548.7856999330002,None,3,5,1,6,2,8,4,9,,1552.237766195,None,1552.237766195,None,1552.237766195,None,1552.237766195,None,1552.237766195,None,1552.237766195,None,1552.237766195,None,1552.237766195,None,1550.931587483,1551.4380396020001,1550.931587483,1551.4380396020001,1550.931587483,1551.4380396020001,None,None,down,0.8505556690001868,1552.237766195,None,None,None,z,0.12029183000004195,1553.1441276,None,1553.304090185,None,,2,2,2,,,,,104,23,2022_Sep_12_1104,templeton_exp2A_SD,2020.2.10,37.51258505026819,
,,,,,,,,,,,,,,,,,,,,,,122,0,122,0,,,,,,,,,,,,,,,,,,,,,,,,1.7,1.8,2.3,,,,,,,,,,,,,,,,,,,,,,,,,,,,,,,,,,,122,1459.6853135860001,2,5,4,9,0,6,3,7,1,1,6,1553.8771800069999,None,2,5,4,9,0,6,1,7,,1556.129659224,None,1556.129659224,None,1556.129659224,None,1556.129659224,None,1556.129659224,None,1556.129659224,None,1556.129659224,None,1556.129659224,None,1556.2362562449998,1556.7427214089998,1556.2362562449998,1556.7427214089998,1556.2362562449998,1556.7427214089998,None,None,down,1.0601172149999911,1556.2362562449998,None,None,None,z,0.1645188480001707,1557.3558551259998,None,1557.5691237259998,None,,3,2,2,,,,,104,23,2022_Sep_12_1104,templeton_exp2A_SD,2020.2.10,37.51258505026819,
,,,,,,,,,,,,,,,,,,,,,,123,0,123,0,,,,,,,,,,,,,,,,,,,,,,,,2.9000000000000004,1.6,2.9000000000000004,,,,,,,,,,,,,,,,,,,,,,,,,,,,,,,,,,,123,1463.9516772270003,2,5,1,7,4,8,3,6,0,1,0,1558.1421828520001,None,0,5,1,7,4,8,3,6,,1561.594251424,None,1561.594251424,None,1561.594251424,None,1561.594251424,None,1561.594251424,None,1561.594251424,None,1561.594251424,None,1561.594251424,None,1560.2880570050002,1560.7945537609999,1560.2880570050002,1560.7945537609999,1560.2880570050002,1560.7945537609999,None,None,down,1.1421964280002612,1561.594251424,None,None,None,z,0.1345532320001439,1562.7937936869998,None,1562.980379616,None,,4,3,3,,,,,104,23,2022_Sep_12_1104,templeton_exp2A_SD,2020.2.10,37.51258505026819,
,,,,,,,,,,,,,,,,,,,,,,124,0,124,0,,,,,,,,,,,,,,,,,,,,,,,,2.9000000000000004,1.6,2.9000000000000004,,,,,,,,,,,,,,,,,,,,,,,,,,,,,,,,,,,124,1469.3632301060002,1,7,4,9,2,8,3,6,0,1,5,1563.5534760240002,None,1,7,4,9,2,0,3,6,,1567.0055352489999,None,1567.0055352489999,None,1567.0055352489999,None,1567.0055352489999,None,1567.0055352489999,None,1567.0055352489999,None,1567.0055352489999,None,1567.0055352489999,None,1565.69939446,1566.2057748510001,1565.69939446,1566.2057748510001,1565.69939446,1566.2057748510001,None,None,left,0.6987881810000545,1567.0055352489999,None,None,None,z,0.08584734800024307,1567.778539816,None,1567.911867017,None,,5,3,4,,,,,104,23,2022_Sep_12_1104,templeton_exp2A_SD,2020.2.10,37.51258505026819,
,,,,,,,,,,,,,,,,,,,,,,125,0,125,0,,,,,,,,,,,,,,,,,,,,,,,,2.9000000000000004,1.6,2.9000000000000004,,,,,,,,,,,,,,,,,,,,,,,,,,,,,,,,,,,125,1474.2941895880003,3,8,2,6,0,7,4,5,0,1,5,1568.4850060620001,None,3,8,2,6,0,1,4,5,,1571.9370192740002,None,1571.9370192740002,None,1571.9370192740002,None,1571.9370192740002,None,1571.9370192740002,None,1571.9370192740002,None,1571.9370192740002,None,1571.9370192740002,None,1570.6308276529999,1571.137280776,1570.6308276529999,1571.137280776,1570.6308276529999,1571.137280776,None,None,left,1.071344894000049,1571.9370192740002,None,None,None,z,0.10114063399987572,1573.08324477,None,1573.216520386,None,,6,3,5,,,,,104,23,2022_Sep_12_1104,templeton_exp2A_SD,2020.2.10,37.51258505026819,
,,,,,,,,,,,,,,,,,,,,,,126,0,126,0,,,,,,,,,,,,,,,,,,,,,,,,2.3000000000000003,2.4000000000000004,2.9000000000000004,,,,,,,,,,,,,,,,,,,,,,,,,,,,,,,,,,,126,1479.5989487300003,1,8,0,6,2,7,4,5,1,1,4,1573.7895527760002,None,1,8,0,6,3,7,4,5,,1576.6550978630003,None,1576.6550978630003,None,1576.6550978630003,None,1576.6550978630003,None,1576.6550978630003,None,1576.6550978630003,None,1576.6550978630003,None,1576.6550978630003,None,1576.7351129520002,1577.2416642530002,1576.7351129520002,1577.2416642530002,1576.7351129520002,1577.2416642530002,None,None,down,3.665270648999922,1576.7351129520002,None,None,None,z,0.11727414200004205,1580.4671126879998,None,1580.6270550049999,None,,7,3,5,,,,,104,23,2022_Sep_12_1104,templeton_exp2A_SD,2020.2.10,37.51258505026819,
,,,,,,,,,,,,,,,,,,,,,,127,0,127,0,,,,,,,,,,,,,,,,,,,,,,,,2.7,2.8000000000000003,3.3000000000000003,,,,,,,,,,,,,,,,,,,,,,,,,,,,,,,,,,,127,1487.0095869670004,0,8,4,5,1,7,2,6,1,0,2,1581.2001797570001,None,0,8,4,5,1,7,2,6,,1584.465484625,None,1584.465484625,None,1584.465484625,None,1584.465484625,None,1584.465484625,None,1584.465484625,None,1584.465484625,None,1584.465484625,None,1584.5455556729999,1585.05195709,1584.5455556729999,1585.05195709,1584.5455556729999,1585.05195709,None,None,down,0.8468247050000173,1584.5455556729999,None,None,None,z,0.17247000699990167,1585.4518786580002,None,1585.6651441879999,None,,8,3,5,,,,,104,23,2022_Sep_12_1104,templeton_exp2A_SD,2020.2.10,37.51258505026819,
,,,,,,,,,,,,,,,,,,,,,,128,0,128,0,,,,,,,,,,,,,,,,,,,,,,,,2.9000000000000004,1.6,2.9000000000000004,,,,,,,,,,,,,,,,,,,,,,,,,,,,,,,,,,,128,1492.0467092840004,1,5,2,9,4,6,0,8,0,0,0,1586.238178641,None,1,5,2,9,4,6,0,8,,1589.690271252,None,1589.690271252,None,1589.690271252,None,1589.690271252,None,1589.690271252,None,1589.690271252,None,1589.690271252,None,1589.690271252,None,1588.384139701,1588.890533873,1588.384139701,1588.890533873,1588.384139701,1588.890533873,None,None,left,0.4941483489997154,1589.690271252,None,None,None,z,0.08633079599985649,1590.2500546730002,None,1590.3833408690002,None,,9,4,6,,,,,104,23,2022_Sep_12_1104,templeton_exp2A_SD,2020.2.10,37.51258505026819,
,,,,,,,,,,,,,,,,,,,,,,129,0,129,0,,,,,,,,,,,,,,,,,,,,,,,,3.1,3.2,3.7,,,,,,,,,,,,,,,,,,,,,,,,,,,,,,,,,,,129,1496.765651618,3,5,2,6,1,8,4,7,1,1,4,1590.956429239,None,3,5,2,6,0,8,4,7,,1594.621630104,None,1594.621630104,None,1594.621630104,None,1594.621630104,None,1594.621630104,None,1594.621630104,None,1594.621630104,None,1594.621630104,None,1594.7016334200002,1595.208184005,1594.7016334200002,1595.208184005,1594.7016334200002,1595.208184005,None,None,down,0.8667553069999485,1594.7016334200002,None,None,None,z,0.09366367900020123,1595.6347241490002,None,1595.767989382,None,,10,4,6,,,,,104,23,2022_Sep_12_1104,templeton_exp2A_SD,2020.2.10,37.51258505026819,
,,,,,,,,,,,,,,,,,,,,,,130,0,130,0,,,,,,,,,,,,,,,,,,,,,,,,2.9000000000000004,1.6,2.9000000000000004,,,,,,,,,,,,,,,,,,,,,,,,,,,,,,,,,,,130,1502.1495027100004,0,7,4,6,2,5,1,9,0,0,3,1596.341029738,None,0,7,4,6,2,5,1,9,,1599.793111675,None,1599.793111675,None,1599.793111675,None,1599.793111675,None,1599.793111675,None,1599.793111675,None,1599.793111675,None,1599.793111675,None,1598.486901483,1598.993351265,1598.486901483,1598.993351265,1598.486901483,1598.993351265,None,None,left,0.5992613389998951,1599.793111675,None,None,None,z,0.09284771600005115,1600.4594979009998,None,1600.5928047890002,None,,11,5,7,,,,,104,23,2022_Sep_12_1104,templeton_exp2A_SD,2020.2.10,37.51258505026819,
