trials_2.thisRepN,trials_2.thisTrialN,trials_2.thisN,trials_2.thisIndex,Used_image_1,Used_image_2,Used_image_3,Used_image_4,Used_image_5,Used_image_6,Used_image_7,Used_image_8,Unused_image_1,Unused_image_2,trials.thisRepN,trials.thisTrialN,trials.thisN,trials.thisIndex,trials_4.thisRepN,trials_4.thisTrialN,trials_4.thisN,trials_4.thisIndex,trials_10.thisRepN,trials_10.thisTrialN,trials_10.thisN,trials_10.thisIndex,welcome.started,welcome.stopped,pointer_dot_0.started,pointer_dot_0.stopped,pointer_dot_1.started,pointer_dot_1.stopped,pointer_dot_2.started,pointer_dot_2.stopped,SD_image.started,SD_image.stopped,memDisplayOnTimePractice,mem_image_0_practice,mem_image_1_practice,mem_image_2_practice,mem_image_3_practice,mem_image_4_practice,mem_image_5_practice,mem_image_6_practice,mem_image_7_practice,retention_interval_practice,retro_0_post_1_practice,change_or_no_practice,cue_location_practice,mem_display_to_test_array_duration_s,mem_display_to_cue_duration_s,routine_duration_s,array_image_1f.started,array_image_1f.stopped,array_image_2f.started,array_image_2f.stopped,array_image_3f.started,array_image_3f.stopped,array_image_4f.started,array_image_4f.stopped,array_image_5f.started,array_image_5f.stopped,array_image_6f.started,array_image_6f.stopped,array_image_7f.started,array_image_7f.stopped,array_image_8f.started,array_image_8f.stopped,pointer_dot_0b.started,pointer_dot_0b.stopped,pointer_dot_1b.started,pointer_dot_1b.stopped,pointer_dot_2b.started,pointer_dot_2b.stopped,sd_practice_resp.keys,sd_practice_resp.rt,sd_practice_resp.started,sd_practice_resp.stopped,text_10.started,text_10.stopped,conf_practice_resp.keys,conf_practice_resp.rt,conf_practice_resp.started,conf_practice_resp.stopped,image.started,image.stopped,training_trial_index,memDisplayOnTimeTraining,mem_image_0_training,mem_image_1_training,mem_image_2_training,mem_image_3_training,mem_image_4_training,mem_image_5_training,mem_image_6_training,mem_image_7_training,retro_0_post_1_training,change_or_no_training,cue_location_training,array_image_1l.started,array_image_1l.stopped,test_image_0_training,test_image_1_training,test_image_2_training,test_image_3_training,test_image_4_training,test_image_5_training,test_image_6_training,test_image_7_training,consecutive_correct_retro_short,array_image_1m.started,array_image_1m.stopped,array_image_2m.started,array_image_2m.stopped,array_image_3m.started,array_image_3m.stopped,array_image_4m.started,array_image_4m.stopped,array_image_5m.started,array_image_5m.stopped,array_image_6m.started,array_image_6m.stopped,array_image_7m.started,array_image_7m.stopped,array_image_8m.started,array_image_8m.stopped,pointer_dot_0d.started,pointer_dot_0d.stopped,pointer_dot_1d.started,pointer_dot_1d.stopped,pointer_dot_2d.started,pointer_dot_2d.stopped,reminder_training.started,reminder_training.stopped,sd_training_resp.keys,sd_training_resp.rt,sd_training_resp.started,sd_training_resp.stopped,text_15.started,text_15.stopped,conf_training_resp.keys,conf_training_resp.rt,conf_training_resp.started,conf_training_resp.stopped,text.started,text.stopped,short_interval_training_finished,training_trial_index_long_this_block,correct_retro_long_this_block,retro_trials_long_this_block,long_interval_block_finished,long_block_retro_acc,reached_criterion,run_out_of_trials,participant,mapping,date,expName,psychopyVersion,frameRate,
,,,,,,,,,,,,,,0,0,0,0,,,,,,,,,13.472567983997578,None,93.37572599899795,None,93.37572599899795,None,93.37572599899795,None,132.70742826799687,None,206.10927228199944,2,7,1,6,4,8,0,5,1.6,1,1,2,1.5,1.6,2.1,221.72697628399692,None,221.72697628399692,None,221.72697628399692,None,221.72697628399692,None,221.72697628399692,None,221.72697628399692,None,221.72697628399692,None,221.72697628399692,None,221.82014745299966,222.32681587600018,221.82014745299966,222.32681587600018,221.82014745299966,222.32681587600018,down,5.49112493100256,221.82014745299966,None,227.35150329599855,None,c,19.007812239000486,227.35150329599855,None,227.35150329599855,None,,,,,,,,,,,,,,,,,,,,,,,,,,,,,,,,,,,,,,,,,,,,,,,,,,,,,,,,,,,,,,,,,,,,,110,23,2022_Sep_23_1156,templeton_exp2A_SD,2020.2.10,75.03143235427278,
,,,,,,,,,,,,,,1,0,1,0,,,,,,,,,,,,,,,,,,,251.94113686999845,1,7,4,5,0,6,2,8,1.6,1,0,2,1.5,1.6,2.1,267.5363941109972,None,267.5363941109972,None,267.5363941109972,None,267.5363941109972,None,267.5363941109972,None,267.5363941109972,None,267.5363941109972,None,267.5363941109972,None,267.62950560899844,268.13614335199964,267.62950560899844,268.13614335199964,267.62950560899844,268.13614335199964,left,2.3697715170019364,267.62950560899844,None,270.02873481299684,None,x,3.9545467399984773,270.02873481299684,None,270.02873481299684,None,,,,,,,,,,,,,,,,,,,,,,,,,,,,,,,,,,,,,,,,,,,,,,,,,,,,,,,,,,,,,,,,,,,,,110,23,2022_Sep_23_1156,templeton_exp2A_SD,2020.2.10,75.03143235427278,
,,,,,,,,,,,,,,2,0,2,0,,,,,,,,,,,,,,,,,,,265.7987370009978,2,8,3,6,4,9,1,5,1.6,0,1,6,2.9000000000000004,1.6,2.9000000000000004,282.7706003259991,None,282.7706003259991,None,282.7706003259991,None,282.7706003259991,None,282.7706003259991,None,282.7706003259991,None,282.7706003259991,None,282.7706003259991,None,281.4644273119993,281.9708632119982,281.4644273119993,281.9708632119982,281.4644273119993,281.9708632119982,down,1.7086604269970849,282.7706003259991,None,284.50327906299935,None,z,2.4560459429994808,284.50327906299935,None,284.50327906299935,None,,,,,,,,,,,,,,,,,,,,,,,,,,,,,,,,,,,,,,,,,,,,,,,,,,,,,,,,,,,,,,,,,,,,,110,23,2022_Sep_23_1156,templeton_exp2A_SD,2020.2.10,75.03143235427278,
,,,,,,,,,,,,,,3,0,3,0,,,,,,,,,,,,,,,,,,,277.541906309998,0,9,3,8,4,5,1,7,1.6,1,1,6,1.5,1.6,2.1,293.0999753279975,None,293.0999753279975,None,293.0999753279975,None,293.0999753279975,None,293.0999753279975,None,293.0999753279975,None,293.0999753279975,None,293.0999753279975,None,293.2066394689973,293.71309616599683,293.2066394689973,293.71309616599683,293.2066394689973,293.71309616599683,down,1.7605325059994357,293.2066394689973,None,294.9925765959997,None,z,0.9906922689988278,294.9925765959997,None,294.9925765959997,None,,,,,,,,,,,,,,,,,,,,,,,,,,,,,,,,,,,,,,,,,,,,,,,,,,,,,,,,,,,,,,,,,,,,,110,23,2022_Sep_23_1156,templeton_exp2A_SD,2020.2.10,75.03143235427278,
,,,,,,,,,,,,,,4,0,4,0,,,,,,,,,,,,,,,,,,,286.70049526100047,4,5,3,6,0,8,1,7,1.6,1,0,0,1.5,1.6,2.1,302.2831716869987,None,302.2831716869987,None,302.2831716869987,None,302.2831716869987,None,302.2831716869987,None,302.2831716869987,None,302.2831716869987,None,302.2831716869987,None,302.38983064999775,302.8961937159984,302.38983064999775,302.8961937159984,302.38983064999775,302.8961937159984,left,1.1934472079992702,302.38983064999775,None,303.6027385919988,None,z,0.780575119999412,303.6027385919988,None,303.6027385919988,None,,,,,,,,,,,,,,,,,,,,,,,,,,,,,,,,,,,,,,,,,,,,,,,,,,,,,,,,,,,,,,,,,,,,,110,23,2022_Sep_23_1156,templeton_exp2A_SD,2020.2.10,75.03143235427278,
,,,,,,,,,,,,,,5,0,5,0,,,,,,,,,,,,,,,,,,,293.4846825429995,4,5,1,7,3,6,0,8,1.6,0,1,1,2.9000000000000004,1.6,2.9000000000000004,310.4800742269981,None,310.4800742269981,None,310.4800742269981,None,310.4800742269981,None,310.4800742269981,None,310.4800742269981,None,310.4800742269981,None,310.4800742269981,None,309.17394515900014,309.68033045399716,309.17394515900014,309.68033045399716,309.17394515900014,309.68033045399716,down,2.8390897549979854,310.4800742269981,None,313.345635423997,None,x,0.7816479799985245,313.345635423997,None,313.345635423997,None,,,,,,,,,,,,,,,,,,,,,,,,,,,,,,,,,,,,,,,,,,,,,,,,,,,,,,,,,,,,,,,,,,,,,110,23,2022_Sep_23_1156,templeton_exp2A_SD,2020.2.10,75.03143235427278,
,,,,,,,,,,,,,,6,0,6,0,,,,,,,,,,,,,,,,,,,303.64997172199946,3,8,0,7,4,5,2,9,1.6,0,0,6,2.9000000000000004,1.6,2.9000000000000004,320.609573144,None,320.609573144,None,320.609573144,None,320.609573144,None,320.609573144,None,320.609573144,None,320.609573144,None,320.609573144,None,319.31675273200017,319.8231843629983,319.31675273200017,319.8231843629983,319.31675273200017,319.8231843629983,left,1.0296847320023517,320.609573144,None,321.6624870689993,None,z,0.5927864189980028,321.6624870689993,None,321.6624870689993,None,,,,,,,,,,,,,,,,,,,,,,,,,,,,,,,,,,,,,,,,,,,,,,,,,,,,,,,,,,,,,,,,,,,,,110,23,2022_Sep_23_1156,templeton_exp2A_SD,2020.2.10,75.03143235427278,
,,,,,,,,,,,,,,,,,,,,,,0,0,0,0,,,,,,,,,,,,,,,,,,,,,,,,2.05,0.75,2.05,,,,,,,,,,,,,,,,,,,,,,,,,,,,,,,,,,,0,455.7378773880009,0,6,3,5,2,8,4,7,0,0,7,469.24654492699847,None,0,6,3,5,2,8,4,7,1,471.8722982829968,None,471.8722982829968,None,471.8722982829968,None,471.8722982829968,None,471.8722982829968,None,471.8722982829968,None,471.8722982829968,None,471.8722982829968,None,470.5661216139997,471.0724996479985,470.5661216139997,471.0724996479985,470.5661216139997,471.0724996479985,None,None,left,2.8388693720007723,471.8722982829968,None,None,None,z,2.946774263000407,474.76447290099895,None,477.73668358099894,None,,,,,,,,,110,23,2022_Sep_23_1156,templeton_exp2A_SD,2020.2.10,75.03143235427278,
,,,,,,,,,,,,,,,,,,,,,,1,0,1,0,,,,,,,,,,,,,,,,,,,,,,,,0.65,0.75,1.25,,,,,,,,,,,,,,,,,,,,,,,,,,,,,,,,,,,1,464.81042750599954,1,7,2,8,3,6,0,9,1,0,5,478.3231115869967,None,1,7,2,8,3,6,0,9,1,479.54934729399974,None,479.54934729399974,None,479.54934729399974,None,479.54934729399974,None,479.54934729399974,None,479.54934729399974,None,479.54934729399974,None,479.54934729399974,None,479.65598771499936,480.16242448199773,479.65598771499936,480.16242448199773,479.65598771499936,480.16242448199773,None,None,left,1.9192512250010623,479.65598771499936,None,None,None,z,0.91996675900009,481.61522464299924,None,482.56149910599925,None,,,,,,,,,110,23,2022_Sep_23_1156,templeton_exp2A_SD,2020.2.10,75.03143235427278,
,,,,,,,,,,,,,,,,,,,,,,2,0,2,0,,,,,,,,,,,,,,,,,,,,,,,,2.05,0.75,2.05,,,,,,,,,,,,,,,,,,,,,,,,,,,,,,,,,,,2,469.6337415199996,0,8,4,6,3,5,1,9,0,0,3,483.1479316849982,None,0,8,4,6,3,5,1,9,2,485.77368002599906,None,485.77368002599906,None,485.77368002599906,None,485.77368002599906,None,485.77368002599906,None,485.77368002599906,None,485.77368002599906,None,485.77368002599906,None,484.46747126399714,484.9739805749996,484.46747126399714,484.9739805749996,484.46747126399714,484.9739805749996,None,None,left,0.9054905529992539,485.77368002599906,None,None,None,z,0.8312698000008822,486.7200022629986,None,487.57295618900025,None,,,,,,,,,110,23,2022_Sep_23_1156,templeton_exp2A_SD,2020.2.10,75.03143235427278,
,,,,,,,,,,,,,,,,,,,,,,3,0,3,0,,,,,,,,,,,,,,,,,,,,,,,,0.65,0.75,1.25,,,,,,,,,,,,,,,,,,,,,,,,,,,,,,,,,,,3,474.64610742999866,4,7,3,6,1,9,0,5,1,1,7,488.15947675699863,None,4,7,3,6,1,9,0,2,2,489.3856305409972,None,489.3856305409972,None,489.3856305409972,None,489.3856305409972,None,489.3856305409972,None,489.3856305409972,None,489.3856305409972,None,489.3856305409972,None,489.478781343998,489.985412946,489.478781343998,489.985412946,489.478781343998,489.985412946,None,None,left,2.192496325002139,489.478781343998,None,None,None,x,0.705191263998131,491.7180925609973,None,492.43777448299807,None,,,,,,,,,110,23,2022_Sep_23_1156,templeton_exp2A_SD,2020.2.10,75.03143235427278,
,,,,,,,,,,,,,,,,,,,,,,4,0,4,0,,,,,,,,,,,,,,,,,,,,,,,,2.05,0.75,2.05,,,,,,,,,,,,,,,,,,,,,,,,,,,,,,,,,,,4,479.50958691900087,2,6,0,5,3,9,4,7,0,0,5,493.0242574219992,None,2,6,0,5,3,9,4,7,3,495.64995419299885,None,495.64995419299885,None,495.64995419299885,None,495.64995419299885,None,495.64995419299885,None,495.64995419299885,None,495.64995419299885,None,495.64995419299885,None,494.3437468719967,494.8502066009969,494.3437468719967,494.8502066009969,494.3437468719967,494.8502066009969,None,None,left,0.7253242209990276,495.64995419299885,None,None,None,z,0.5283220059973246,496.4229898119993,None,496.9693756429988,None,,,,,,,,,110,23,2022_Sep_23_1156,templeton_exp2A_SD,2020.2.10,75.03143235427278,
,,,,,,,,,,,,,,,,,,,,,,5,0,5,0,,,,,,,,,,,,,,,,,,,,,,,,0.65,0.75,1.25,,,,,,,,,,,,,,,,,,,,,,,,,,,,,,,,,,,5,484.0417468819978,3,9,2,6,1,5,4,7,1,1,1,497.5558779159983,None,3,0,2,6,1,5,4,7,3,498.7820334459975,None,498.7820334459975,None,498.7820334459975,None,498.7820334459975,None,498.7820334459975,None,498.7820334459975,None,498.7820334459975,None,498.7820334459975,None,498.87541155899817,499.3818207029981,498.87541155899817,499.3818207029981,498.87541155899817,499.3818207029981,None,None,down,1.923854406002647,498.87541155899817,None,None,None,x,0.847360708998167,500.84792533200016,None,501.71421636599916,None,,,,,,,,,110,23,2022_Sep_23_1156,templeton_exp2A_SD,2020.2.10,75.03143235427278,
,,,,,,,,,,,,,,,,,,,,,,6,0,6,0,,,,,,,,,,,,,,,,,,,,,,,,2.05,0.75,2.05,,,,,,,,,,,,,,,,,,,,,,,,,,,,,,,,,,,6,488.7878924809993,1,9,4,5,3,7,0,6,0,1,1,502.3007497519975,None,1,2,4,5,3,7,0,6,4,504.9263947929976,None,504.9263947929976,None,504.9263947929976,None,504.9263947929976,None,504.9263947929976,None,504.9263947929976,None,504.9263947929976,None,504.9263947929976,None,503.63354172899926,504.1400439659992,503.63354172899926,504.1400439659992,503.63354172899926,504.1400439659992,None,None,down,1.4007688429992413,504.9263947929976,None,None,None,z,1.2201367160014343,506.37914984399686,None,507.61859262899816,None,,,,,,,,,110,23,2022_Sep_23_1156,templeton_exp2A_SD,2020.2.10,75.03143235427278,
,,,,,,,,,,,,,,,,,,,,,,7,0,7,0,,,,,,,,,,,,,,,,,,,,,,,,0.65,0.75,1.25,,,,,,,,,,,,,,,,,,,,,,,,,,,,,,,,,,,7,494.68899863099796,0,9,3,8,2,6,4,5,1,1,6,508.191824538997,None,0,9,3,8,2,6,1,5,4,509.40468806399804,None,509.40468806399804,None,509.40468806399804,None,509.40468806399804,None,509.40468806399804,None,509.40468806399804,None,509.40468806399804,None,509.40468806399804,None,509.511326980999,510.01779165199696,509.511326980999,510.01779165199696,509.511326980999,510.01779165199696,None,None,left,1.1119372379980632,509.511326980999,None,None,None,x,0.8163636340032099,510.67090852899855,None,511.5105601329997,None,,,,,,,,,110,23,2022_Sep_23_1156,templeton_exp2A_SD,2020.2.10,75.03143235427278,
,,,,,,,,,,,,,,,,,,,,,,8,0,8,0,,,,,,,,,,,,,,,,,,,,,,,,0.65,0.75,1.25,,,,,,,,,,,,,,,,,,,,,,,,,,,,,,,,,,,8,498.5843598329993,1,5,3,6,0,7,4,9,1,0,0,512.0970573809973,None,1,5,3,6,0,7,4,9,4,513.3232549610002,None,513.3232549610002,None,513.3232549610002,None,513.3232549610002,None,513.3232549610002,None,513.3232549610002,None,513.3232549610002,None,513.3232549610002,None,513.4164986719989,513.922956440998,513.4164986719989,513.922956440998,513.4164986719989,513.922956440998,None,None,left,2.21477709499959,513.4164986719989,None,None,None,x,0.6369892479997361,515.6822960809986,None,516.3353896469998,None,,,,,,,,,110,23,2022_Sep_23_1156,templeton_exp2A_SD,2020.2.10,75.03143235427278,
,,,,,,,,,,,,,,,,,,,,,,9,0,9,0,,,,,,,,,,,,,,,,,,,,,,,,0.65,0.75,1.25,,,,,,,,,,,,,,,,,,,,,,,,,,,,,,,,,,,9,503.40804164699875,4,6,0,9,3,8,2,7,1,1,5,516.9218907309987,None,4,6,0,9,3,1,2,7,4,518.148047118997,None,518.148047118997,None,518.148047118997,None,518.148047118997,None,518.148047118997,None,518.148047118997,None,518.148047118997,None,518.148047118997,None,518.2546733229974,518.7611548249988,518.2546733229974,518.7611548249988,518.2546733229974,518.7611548249988,None,None,down,1.6885710429996834,518.2546733229974,None,None,None,x,0.45988961799957906,519.987398453999,None,520.4671610829973,None,,,,,,,,,110,23,2022_Sep_23_1156,templeton_exp2A_SD,2020.2.10,75.03143235427278,
,,,,,,,,,,,,,,,,,,,,,,10,0,10,0,,,,,,,,,,,,,,,,,,,,,,,,2.05,0.75,2.05,,,,,,,,,,,,,,,,,,,,,,,,,,,,,,,,,,,10,507.54056919199866,2,6,1,8,3,9,0,7,0,1,1,521.0535978549997,None,2,4,1,8,3,9,0,7,5,523.6659411239998,None,523.6659411239998,None,523.6659411239998,None,523.6659411239998,None,523.6659411239998,None,523.6659411239998,None,523.6659411239998,None,523.6659411239998,None,522.3731589929994,522.8796000799994,522.3731589929994,522.8796000799994,522.3731589929994,522.8796000799994,None,None,down,1.2532281290004903,523.6659411239998,None,None,None,z,0.3151680340015446,524.9721176549974,None,525.3053212689993,None,,,,,,,,,110,23,2022_Sep_23_1156,templeton_exp2A_SD,2020.2.10,75.03143235427278,
,,,,,,,,,,,,,,,,,,,,,,11,0,11,0,,,,,,,,,,,,,,,,,,,,,,,,0.65,0.75,1.25,,,,,,,,,,,,,,,,,,,,,,,,,,,,,,,,,,,11,512.3776227630005,3,9,1,5,4,7,2,6,1,0,4,525.8918254899982,None,3,9,1,5,4,7,2,6,5,527.1180267519994,None,527.1180267519994,None,527.1180267519994,None,527.1180267519994,None,527.1180267519994,None,527.1180267519994,None,527.1180267519994,None,527.1180267519994,None,527.211236297997,527.7177851579982,527.211236297997,527.7177851579982,527.211236297997,527.7177851579982,None,None,left,1.2200292790003004,527.211236297997,None,None,None,z,0.6578075409997837,528.477466985998,None,529.1571794269985,None,,,,,,,,,110,23,2022_Sep_23_1156,templeton_exp2A_SD,2020.2.10,75.03143235427278,
,,,,,,,,,,,,,,,,,,,,,,12,0,12,0,,,,,,,,,,,,,,,,,,,,,,,,0.65,0.75,1.25,,,,,,,,,,,,,,,,,,,,,,,,,,,,,,,,,,,12,516.2306920629999,1,8,3,6,0,9,2,7,1,1,5,529.743602241997,None,1,8,3,6,0,4,2,7,5,530.9698839459998,None,530.9698839459998,None,530.9698839459998,None,530.9698839459998,None,530.9698839459998,None,530.9698839459998,None,530.9698839459998,None,530.9698839459998,None,531.076417499,531.5829117139983,531.076417499,531.5829117139983,531.076417499,531.5829117139983,None,None,down,2.1388414700013527,531.076417499,None,None,None,x,1.0889666589973785,533.2623154409994,None,534.3685606979998,None,,,,,,,,,110,23,2022_Sep_23_1156,templeton_exp2A_SD,2020.2.10,75.03143235427278,
,,,,,,,,,,,,,,,,,,,,,,13,0,13,0,,,,,,,,,,,,,,,,,,,,,,,,2.05,0.75,2.05,,,,,,,,,,,,,,,,,,,,,,,,,,,,,,,,,,,13,521.4394245059993,0,8,2,7,3,9,1,5,0,0,4,534.9550613729989,None,0,8,2,7,3,9,1,5,0,537.5673549919993,None,537.5673549919993,None,537.5673549919993,None,537.5673549919993,None,537.5673549919993,None,537.5673549919993,None,537.5673549919993,None,537.5673549919993,None,536.2745110309988,536.780973339999,536.2745110309988,536.780973339999,536.2745110309988,536.780973339999,None,None,down,1.087916011998459,537.5673549919993,None,None,None,z,0.5630120649984747,538.700264998999,None,539.2867003199972,None,,,,,,,,,110,23,2022_Sep_23_1156,templeton_exp2A_SD,2020.2.10,75.03143235427278,
,,,,,,,,,,,,,,,,,,,,,,14,0,14,0,,,,,,,,,,,,,,,,,,,,,,,,2.05,0.75,2.05,,,,,,,,,,,,,,,,,,,,,,,,,,,,,,,,,,,14,526.3585941149977,1,6,4,5,3,9,0,8,0,1,0,539.8731938860001,None,2,6,4,5,3,9,0,8,1,542.4855261539997,None,542.4855261539997,None,542.4855261539997,None,542.4855261539997,None,542.4855261539997,None,542.4855261539997,None,542.4855261539997,None,542.4855261539997,None,541.1926150209983,541.6991335860002,541.1926150209983,541.6991335860002,541.1926150209983,541.6991335860002,None,None,down,0.8897609640007431,542.4855261539997,None,None,None,z,0.3568405080004595,543.4184932839999,None,543.7916443899994,None,,,,,,,,,110,23,2022_Sep_23_1156,templeton_exp2A_SD,2020.2.10,75.03143235427278,
,,,,,,,,,,,,,,,,,,,,,,15,0,15,0,,,,,,,,,,,,,,,,,,,,,,,,0.65,0.75,1.25,,,,,,,,,,,,,,,,,,,,,,,,,,,,,,,,,,,15,543.1489919720007,2,7,1,6,0,9,3,5,1,0,5,556.6667665959976,None,2,7,1,6,0,9,3,5,1,557.8929714839978,None,557.8929714839978,None,557.8929714839978,None,557.8929714839978,None,557.8929714839978,None,557.8929714839978,None,557.8929714839978,None,557.8929714839978,None,557.9862925069974,558.4927204589985,557.9862925069974,558.4927204589985,557.9862925069974,558.4927204589985,None,None,left,1.052930314999685,557.9862925069974,None,None,None,z,0.32806790199902025,559.0792137009994,None,559.4257768159987,None,,,,,,,,,110,23,2022_Sep_23_1156,templeton_exp2A_SD,2020.2.10,75.03143235427278,
,,,,,,,,,,,,,,,,,,,,,,16,0,16,0,,,,,,,,,,,,,,,,,,,,,,,,0.65,0.75,1.25,,,,,,,,,,,,,,,,,,,,,,,,,,,,,,,,,,,16,546.4976104800007,4,5,1,8,0,7,2,9,1,0,7,560.0121671359993,None,4,5,1,8,0,7,2,9,1,561.2251003649981,None,561.2251003649981,None,561.2251003649981,None,561.2251003649981,None,561.2251003649981,None,561.2251003649981,None,561.2251003649981,None,561.2251003649981,None,561.3316852659991,561.8382034099996,561.3316852659991,561.8382034099996,561.3316852659991,561.8382034099996,None,None,down,1.7475669600025867,561.3316852659991,None,None,None,x,1.076249767000263,563.1310363439989,None,564.2238963659984,None,,,,,,,,,110,23,2022_Sep_23_1156,templeton_exp2A_SD,2020.2.10,75.03143235427278,
,,,,,,,,,,,,,,,,,,,,,,17,0,17,0,,,,,,,,,,,,,,,,,,,,,,,,0.65,0.75,1.25,,,,,,,,,,,,,,,,,,,,,,,,,,,,,,,,,,,17,551.2973804629983,0,5,2,9,1,6,4,7,1,1,6,564.8103411390002,None,0,5,2,9,1,6,3,7,1,566.0365766109971,None,566.0365766109971,None,566.0365766109971,None,566.0365766109971,None,566.0365766109971,None,566.0365766109971,None,566.0365766109971,None,566.0365766109971,None,566.1298807269995,566.6363837999997,566.1298807269995,566.6363837999997,566.1298807269995,566.6363837999997,None,None,left,1.805385579002177,566.1298807269995,None,None,None,x,0.31276023499958683,567.9825269059984,None,568.3156959929984,None,,,,,,,,,110,23,2022_Sep_23_1156,templeton_exp2A_SD,2020.2.10,75.03143235427278,
,,,,,,,,,,,,,,,,,,,,,,18,0,18,0,,,,,,,,,,,,,,,,,,,,,,,,0.65,0.75,1.25,,,,,,,,,,,,,,,,,,,,,,,,,,,,,,,,,,,18,555.3895628259997,3,5,0,8,1,6,2,7,1,0,2,568.9021966660002,None,3,5,0,8,1,6,2,7,1,570.1283505599968,None,570.1283505599968,None,570.1283505599968,None,570.1283505599968,None,570.1283505599968,None,570.1283505599968,None,570.1283505599968,None,570.1283505599968,None,570.2216677929973,570.7281546259983,570.2216677929973,570.7281546259983,570.2216677929973,570.7281546259983,None,None,left,2.1136117599999125,570.2216677929973,None,None,None,x,0.28245749499910744,572.3808204369998,None,572.687404854998,None,,,,,,,,,110,23,2022_Sep_23_1156,templeton_exp2A_SD,2020.2.10,75.03143235427278,
,,,,,,,,,,,,,,,,,,,,,,19,0,19,0,,,,,,,,,,,,,,,,,,,,,,,,2.05,0.75,2.05,,,,,,,,,,,,,,,,,,,,,,,,,,,,,,,,,,,19,559.7594504289991,4,7,0,5,2,9,3,6,0,0,2,573.2738694209984,None,4,7,0,5,2,9,3,6,2,575.8995326209988,None,575.8995326209988,None,575.8995326209988,None,575.8995326209988,None,575.8995326209988,None,575.8995326209988,None,575.8995326209988,None,575.8995326209988,None,574.5932812799983,575.0997711169985,574.5932812799983,575.0997711169985,574.5932812799983,575.0997711169985,None,None,left,1.5798207629995886,575.8995326209988,None,None,None,z,0.913751719002903,577.5255310209977,None,578.4585071179972,None,,,,,,,,,110,23,2022_Sep_23_1156,templeton_exp2A_SD,2020.2.10,75.03143235427278,
,,,,,,,,,,,,,,,,,,,,,,20,0,20,0,,,,,,,,,,,,,,,,,,,,,,,,2.05,0.75,2.05,,,,,,,,,,,,,,,,,,,,,,,,,,,,,,,,,,,20,565.5292267789991,1,9,2,5,4,8,3,7,0,1,4,579.0316686089973,None,1,9,2,5,0,8,3,7,3,581.644034555,None,581.644034555,None,581.644034555,None,581.644034555,None,581.644034555,None,581.644034555,None,581.644034555,None,581.644034555,None,580.3511984709985,580.8576494119989,580.3511984709985,580.8576494119989,580.3511984709985,580.8576494119989,None,None,down,1.4352088749983523,581.644034555,None,None,None,x,0.715836371997284,583.1234538089993,None,583.8564669810003,None,,,,,,,,,110,23,2022_Sep_23_1156,templeton_exp2A_SD,2020.2.10,75.03143235427278,
,,,,,,,,,,,,,,,,,,,,,,21,0,21,0,,,,,,,,,,,,,,,,,,,,,,,,0.65,0.75,1.25,,,,,,,,,,,,,,,,,,,,,,,,,,,,,,,,,,,21,570.9305499590009,4,5,0,8,1,7,3,6,1,0,4,584.4429125889983,None,4,5,0,8,1,7,3,6,3,585.6691324719977,None,585.6691324719977,None,585.6691324719977,None,585.6691324719977,None,585.6691324719977,None,585.6691324719977,None,585.6691324719977,None,585.6691324719977,None,585.7758016049993,586.2822266309995,585.7758016049993,586.2822266309995,585.7758016049993,586.2822266309995,None,None,left,1.2714698919990042,585.7758016049993,None,None,None,z,0.9759840799997619,587.095288671997,None,588.0948817279968,None,,,,,,,,,110,23,2022_Sep_23_1156,templeton_exp2A_SD,2020.2.10,75.03143235427278,
,,,,,,,,,,,,,,,,,,,,,,22,0,22,0,,,,,,,,,,,,,,,,,,,,,,,,0.65,0.75,1.25,,,,,,,,,,,,,,,,,,,,,,,,,,,,,,,,,,,22,575.1685599049997,0,6,2,8,1,7,3,5,1,0,0,588.6813088269992,None,0,6,2,8,1,7,3,5,3,589.9075201429987,None,589.9075201429987,None,589.9075201429987,None,589.9075201429987,None,589.9075201429987,None,589.9075201429987,None,589.9075201429987,None,589.9075201429987,None,590.0007938859999,590.5073168919989,590.0007938859999,590.5073168919989,590.0007938859999,590.5073168919989,None,None,down,2.2864888709991646,590.0007938859999,None,None,None,c,0.714003697001317,592.3332694049968,None,593.0662977749998,None,,,,,,,,,110,23,2022_Sep_23_1156,templeton_exp2A_SD,2020.2.10,75.03143235427278,
,,,,,,,,,,,,,,,,,,,,,,23,0,23,0,,,,,,,,,,,,,,,,,,,,,,,,0.65,0.75,1.25,,,,,,,,,,,,,,,,,,,,,,,,,,,,,,,,,,,23,580.1382175059989,0,5,4,6,2,9,1,8,1,0,5,593.6528004309985,None,0,5,4,6,2,9,1,8,3,594.878969565998,None,594.878969565998,None,594.878969565998,None,594.878969565998,None,594.878969565998,None,594.878969565998,None,594.878969565998,None,594.878969565998,None,594.9722403779997,595.4787922239993,594.9722403779997,595.4787922239993,594.9722403779997,595.4787922239993,None,None,down,1.2910309930011863,594.9722403779997,None,None,None,x,0.40622271900065243,596.3051376279982,None,596.7315678889972,None,,,,,,,,,110,23,2022_Sep_23_1156,templeton_exp2A_SD,2020.2.10,75.03143235427278,
,,,,,,,,,,,,,,,,,,,,,,24,0,24,0,,,,,,,,,,,,,,,,,,,,,,,,2.05,0.75,2.05,,,,,,,,,,,,,,,,,,,,,,,,,,,,,,,,,,,24,583.8054178179991,0,7,1,5,3,8,2,6,0,1,0,597.3180910169976,None,4,7,1,5,3,8,2,6,4,599.9437408879967,None,599.9437408879967,None,599.9437408879967,None,599.9437408879967,None,599.9437408879967,None,599.9437408879967,None,599.9437408879967,None,599.9437408879967,None,598.6375350369999,599.1440466859967,598.6375350369999,599.1440466859967,598.6375350369999,599.1440466859967,None,None,down,1.0554768750007497,599.9437408879967,None,None,None,z,0.4053091059977305,601.0499618819995,None,601.4764443159984,None,,,,,,,,,110,23,2022_Sep_23_1156,templeton_exp2A_SD,2020.2.10,75.03143235427278,
,,,,,,,,,,,,,,,,,,,,,,25,0,25,0,,,,,,,,,,,,,,,,,,,,,,,,0.65,0.75,1.25,,,,,,,,,,,,,,,,,,,,,,,,,,,,,,,,,,,25,588.5470677320009,2,8,3,6,0,5,4,9,1,1,1,602.0495897119981,None,2,1,3,6,0,5,4,9,4,603.2624559189971,None,603.2624559189971,None,603.2624559189971,None,603.2624559189971,None,603.2624559189971,None,603.2624559189971,None,603.2624559189971,None,603.2624559189971,None,603.3691382059988,603.8755636179994,603.3691382059988,603.8755636179994,603.3691382059988,603.8755636179994,None,None,left,1.4541686470001878,603.3691382059988,None,None,None,x,0.26013522900029784,604.8751723799978,None,605.1550828459985,None,,,,,,,,,110,23,2022_Sep_23_1156,templeton_exp2A_SD,2020.2.10,75.03143235427278,
,,,,,,,,,,,,,,,,,,,,,,26,0,26,0,,,,,,,,,,,,,,,,,,,,,,,,0.65,0.75,1.25,,,,,,,,,,,,,,,,,,,,,,,,,,,,,,,,,,,26,592.2283646549986,1,8,0,6,4,7,2,5,1,1,1,605.7415564929979,None,1,3,0,6,4,7,2,5,4,606.9677531870002,None,606.9677531870002,None,606.9677531870002,None,606.9677531870002,None,606.9677531870002,None,606.9677531870002,None,606.9677531870002,None,606.9677531870002,None,607.0610431859968,607.5675308959981,607.0610431859968,607.5675308959981,607.0610431859968,607.5675308959981,None,None,left,1.9461322629977076,607.0610431859968,None,None,None,z,0.2910347079996427,609.0602436970003,None,609.3668037379975,None,,,,,,,,,110,23,2022_Sep_23_1156,templeton_exp2A_SD,2020.2.10,75.03143235427278,
,,,,,,,,,,,,,,,,,,,,,,27,0,27,0,,,,,,,,,,,,,,,,,,,,,,,,0.65,0.75,1.25,,,,,,,,,,,,,,,,,,,,,,,,,,,,,,,,,,,27,596.4404190690002,4,5,1,7,0,6,2,9,1,1,1,609.953304237999,None,4,3,1,7,0,6,2,9,4,611.1794695659992,None,611.1794695659992,None,611.1794695659992,None,611.1794695659992,None,611.1794695659992,None,611.1794695659992,None,611.1794695659992,None,611.1794695659992,None,611.2727916859985,611.779231409997,611.2727916859985,611.779231409997,611.2727916859985,611.779231409997,None,None,left,2.102502124002058,611.2727916859985,None,None,None,x,0.25260608499957016,613.4186594419989,None,613.6851857139991,None,,,,,,,,,110,23,2022_Sep_23_1156,templeton_exp2A_SD,2020.2.10,75.03143235427278,
,,,,,,,,,,,,,,,,,,,,,,28,0,28,0,,,,,,,,,,,,,,,,,,,,,,,,0.65,0.75,1.25,,,,,,,,,,,,,,,,,,,,,,,,,,,,,,,,,,,28,600.7579731980004,1,9,4,8,2,6,3,7,1,1,5,614.2716700169985,None,1,9,4,8,2,0,3,7,4,615.4844994479972,None,615.4844994479972,None,615.4844994479972,None,615.4844994479972,None,615.4844994479972,None,615.4844994479972,None,615.4844994479972,None,615.4844994479972,None,615.5911588479976,616.0975966839978,615.5911588479976,616.0975966839978,615.5911588479976,616.0975966839978,None,None,left,1.5281177789984213,615.5911588479976,None,None,None,x,0.2594534929994552,617.1638712849999,None,617.4437300789978,None,,,,,,,,,110,23,2022_Sep_23_1156,templeton_exp2A_SD,2020.2.10,75.03143235427278,
,,,,,,,,,,,,,,,,,,,,,,29,0,29,0,,,,,,,,,,,,,,,,,,,,,,,,0.65,0.75,1.25,,,,,,,,,,,,,,,,,,,,,,,,,,,,,,,,,,,29,604.5165432449976,1,5,3,7,2,9,4,6,1,0,3,618.0301859829997,None,1,5,3,7,2,9,4,6,4,619.2564276599987,None,619.2564276599987,None,619.2564276599987,None,619.2564276599987,None,619.2564276599987,None,619.2564276599987,None,619.2564276599987,None,619.2564276599987,None,619.3497471589981,619.8561687809997,619.3497471589981,619.8561687809997,619.3497471589981,619.8561687809997,None,None,left,1.5294817440008046,619.3497471589981,None,None,None,x,0.27678840000226046,620.922484011,None,621.2156531979999,None,,,,,,,,,110,23,2022_Sep_23_1156,templeton_exp2A_SD,2020.2.10,75.03143235427278,
,,,,,,,,,,,,,,,,,,,,,,30,0,30,0,,,,,,,,,,,,,,,,,,,,,,,,0.65,0.75,1.25,,,,,,,,,,,,,,,,,,,,,,,,,,,,,,,,,,,30,619.5039874600006,4,5,2,7,3,8,0,9,1,0,0,633.011236598999,None,4,5,2,7,3,8,0,9,4,634.2241108130002,None,634.2241108130002,None,634.2241108130002,None,634.2241108130002,None,634.2241108130002,None,634.2241108130002,None,634.2241108130002,None,634.2241108130002,None,634.3306987819997,634.8371616679979,634.3306987819997,634.8371616679979,634.3306987819997,634.8371616679979,None,None,left,0.8205648769981053,634.3306987819997,None,None,None,z,0.2262918289998197,635.1969833689982,None,635.436913046,None,,,,,,,,,110,23,2022_Sep_23_1156,templeton_exp2A_SD,2020.2.10,75.03143235427278,
,,,,,,,,,,,,,,,,,,,,,,31,0,31,0,,,,,,,,,,,,,,,,,,,,,,,,0.65,0.75,1.25,,,,,,,,,,,,,,,,,,,,,,,,,,,,,,,,,,,31,622.5082974849975,4,8,2,9,3,7,1,5,1,1,6,636.0234127199983,None,4,8,2,9,3,7,0,5,4,637.2362869809986,None,637.2362869809986,None,637.2362869809986,None,637.2362869809986,None,637.2362869809986,None,637.2362869809986,None,637.2362869809986,None,637.2362869809986,None,637.3428656179967,637.8493882229996,637.3428656179967,637.8493882229996,637.3428656179967,637.8493882229996,None,None,down,3.4963994860008825,637.3428656179967,None,None,None,x,0.45506902399938554,640.8881729759996,None,641.3680132469999,None,,,,,,,,,110,23,2022_Sep_23_1156,templeton_exp2A_SD,2020.2.10,75.03143235427278,
,,,,,,,,,,,,,,,,,,,,,,32,0,32,0,,,,,,,,,,,,,,,,,,,,,,,,2.05,0.75,2.05,,,,,,,,,,,,,,,,,,,,,,,,,,,,,,,,,,,32,628.4412648439975,0,6,1,9,3,8,2,7,0,0,5,641.9545018329991,None,0,6,1,9,3,8,2,7,5,644.5801519829984,None,644.5801519829984,None,644.5801519829984,None,644.5801519829984,None,644.5801519829984,None,644.5801519829984,None,644.5801519829984,None,644.5801519829984,None,643.2874268769992,643.7937126699981,643.2874268769992,643.7937126699981,643.2874268769992,643.7937126699981,None,None,left,2.2911164670003927,644.5801519829984,None,None,None,z,0.630739000000176,646.9125338239974,None,647.5656799429999,None,,,,,,,,,110,23,2022_Sep_23_1156,templeton_exp2A_SD,2020.2.10,75.03143235427278,
,,,,,,,,,,,,,,,,,,,,,,33,0,33,0,,,,,,,,,,,,,,,,,,,,,,,,2.05,0.75,2.05,,,,,,,,,,,,,,,,,,,,,,,,,,,,,,,,,,,33,634.6382359269992,3,7,0,6,2,9,4,5,0,0,7,648.1521668819987,None,3,7,0,6,2,9,4,5,6,650.7777948000003,None,650.7777948000003,None,650.7777948000003,None,650.7777948000003,None,650.7777948000003,None,650.7777948000003,None,650.7777948000003,None,650.7777948000003,None,649.4716425929983,649.9780741799987,649.4716425929983,649.9780741799987,649.4716425929983,649.9780741799987,None,None,left,1.52546735299984,650.7777948000003,None,None,None,z,0.8167153080030403,652.3505596260002,None,653.1902106369998,None,,,,,,,,,110,23,2022_Sep_23_1156,templeton_exp2A_SD,2020.2.10,75.03143235427278,
,,,,,,,,,,,,,,,,,,,,,,34,0,34,0,,,,,,,,,,,,,,,,,,,,,,,,2.05,0.75,2.05,,,,,,,,,,,,,,,,,,,,,,,,,,,,,,,,,,,34,640.2613689059981,4,5,1,8,3,6,2,9,0,0,3,653.7766265439968,None,4,5,1,8,3,6,2,9,0,656.3890187399993,None,656.3890187399993,None,656.3890187399993,None,656.3890187399993,None,656.3890187399993,None,656.3890187399993,None,656.3890187399993,None,656.3890187399993,None,655.0961466230001,655.6026755079984,655.0961466230001,655.6026755079984,655.0961466230001,655.6026755079984,None,None,down,1.3461790210021718,656.3890187399993,None,None,None,x,0.3761048630003643,657.7751713319994,None,658.1749595369984,None,,,,,,,,,110,23,2022_Sep_23_1156,templeton_exp2A_SD,2020.2.10,75.03143235427278,
,,,,,,,,,,,,,,,,,,,,,,35,0,35,0,,,,,,,,,,,,,,,,,,,,,,,,2.05,0.75,2.05,,,,,,,,,,,,,,,,,,,,,,,,,,,,,,,,,,,35,645.2479871849973,3,6,2,8,1,5,0,7,0,1,0,658.761390448999,None,4,6,2,8,1,5,0,7,0,661.3871507599979,None,661.3871507599979,None,661.3871507599979,None,661.3871507599979,None,661.3871507599979,None,661.3871507599979,None,661.3871507599979,None,661.3871507599979,None,660.0942572639979,660.6007188049989,660.0942572639979,660.6007188049989,660.0942572639979,660.6007188049989,None,None,left,1.8200677999993786,661.3871507599979,None,None,None,x,0.2582559959992068,663.2531087779971,None,663.5329300249978,None,,,,,,,,,110,23,2022_Sep_23_1156,templeton_exp2A_SD,2020.2.10,75.03143235427278,
,,,,,,,,,,,,,,,,,,,,,,36,0,36,0,,,,,,,,,,,,,,,,,,,,,,,,2.05,0.75,2.05,,,,,,,,,,,,,,,,,,,,,,,,,,,,,,,,,,,36,650.605622881998,2,7,4,6,1,5,3,9,0,1,2,664.1194337669986,None,2,7,0,6,1,5,3,9,1,666.7450843890001,None,666.7450843890001,None,666.7450843890001,None,666.7450843890001,None,666.7450843890001,None,666.7450843890001,None,666.7450843890001,None,666.7450843890001,None,665.4389482629995,665.9453709869995,665.4389482629995,665.9453709869995,665.4389482629995,665.9453709869995,None,None,down,1.2381363659987983,666.7450843890001,None,None,None,z,0.3826498470007209,668.0246341709972,None,668.4244346549967,None,,,,,,,,,110,23,2022_Sep_23_1156,templeton_exp2A_SD,2020.2.10,75.03143235427278,
,,,,,,,,,,,,,,,,,,,,,,37,0,37,0,,,,,,,,,,,,,,,,,,,,,,,,2.05,0.75,2.05,,,,,,,,,,,,,,,,,,,,,,,,,,,,,,,,,,,37,655.4968795979985,1,7,4,6,3,9,2,5,0,0,3,669.0108933489973,None,1,7,4,6,3,9,2,5,2,671.6365412499981,None,671.6365412499981,None,671.6365412499981,None,671.6365412499981,None,671.6365412499981,None,671.6365412499981,None,671.6365412499981,None,671.6365412499981,None,670.3304135919971,670.8368895839994,670.3304135919971,670.8368895839994,670.3304135919971,670.8368895839994,None,None,left,1.050730303999444,671.6365412499981,None,None,None,z,0.4858154799985641,672.7294680389969,None,673.2359204899985,None,,,,,,,,,110,23,2022_Sep_23_1156,templeton_exp2A_SD,2020.2.10,75.03143235427278,
,,,,,,,,,,,,,,,,,,,,,,38,0,38,0,,,,,,,,,,,,,,,,,,,,,,,,2.05,0.75,2.05,,,,,,,,,,,,,,,,,,,,,,,,,,,,,,,,,,,38,660.3079904799997,3,5,0,7,2,8,4,6,0,0,2,673.822422104,None,3,5,0,7,2,8,4,6,3,676.4481084199979,None,676.4481084199979,None,676.4481084199979,None,676.4481084199979,None,676.4481084199979,None,676.4481084199979,None,676.4481084199979,None,676.4481084199979,None,675.1419565889992,675.6483318709979,675.1419565889992,675.6483318709979,675.1419565889992,675.6483318709979,None,None,left,1.4871614820003742,676.4481084199979,None,None,None,x,0.30648148600084824,677.9808069639985,None,678.300686912,None,,,,,,,,,110,23,2022_Sep_23_1156,templeton_exp2A_SD,2020.2.10,75.03143235427278,
,,,,,,,,,,,,,,,,,,,,,,39,0,39,0,,,,,,,,,,,,,,,,,,,,,,,,0.65,0.75,1.25,,,,,,,,,,,,,,,,,,,,,,,,,,,,,,,,,,,39,665.372495028998,4,8,1,7,2,9,0,5,1,0,3,678.887129339997,None,4,8,1,7,2,9,0,5,3,680.1000543809969,None,680.1000543809969,None,680.1000543809969,None,680.1000543809969,None,680.1000543809969,None,680.1000543809969,None,680.1000543809969,None,680.1000543809969,None,680.2066689489984,680.7131106089982,680.2066689489984,680.7131106089982,680.2066689489984,680.7131106089982,None,None,down,2.9366175699979067,680.2066689489984,None,None,None,c,0.5511040210003557,683.192168112997,None,683.7652922919988,None,,,,,,,,,110,23,2022_Sep_23_1156,templeton_exp2A_SD,2020.2.10,75.03143235427278,
,,,,,,,,,,,,,,,,,,,,,,40,0,40,0,,,,,,,,,,,,,,,,,,,,,,,,0.65,0.75,1.25,,,,,,,,,,,,,,,,,,,,,,,,,,,,,,,,,,,40,670.8360707799984,2,6,4,9,3,5,0,8,1,1,1,684.3384095199981,None,2,1,4,9,3,5,0,8,3,685.551329902999,None,685.551329902999,None,685.551329902999,None,685.551329902999,None,685.551329902999,None,685.551329902999,None,685.551329902999,None,685.551329902999,None,685.6445640889979,686.1510840739975,685.6445640889979,686.1510840739975,685.6445640889979,686.1510840739975,None,None,down,4.706760834000306,685.6445640889979,None,None,None,x,0.42046429499896476,690.402820801999,None,690.8426173299995,None,,,,,,,,,110,23,2022_Sep_23_1156,templeton_exp2A_SD,2020.2.10,75.03143235427278,
,,,,,,,,,,,,,,,,,,,,,,41,0,41,0,,,,,,,,,,,,,,,,,,,,,,,,2.05,0.75,2.05,,,,,,,,,,,,,,,,,,,,,,,,,,,,,,,,,,,41,677.9154912459999,1,9,4,6,2,7,3,8,0,0,1,691.4290461129967,None,1,9,4,6,2,7,3,8,4,694.0547739249996,None,694.0547739249996,None,694.0547739249996,None,694.0547739249996,None,694.0547739249996,None,694.0547739249996,None,694.0547739249996,None,694.0547739249996,None,692.748549603999,693.2550762819992,692.748549603999,693.2550762819992,692.748549603999,693.2550762819992,None,None,left,0.6724890059995232,694.0547739249996,None,None,None,z,0.2407324650012015,694.7744998909984,None,695.0410213239993,None,,,,,,,,,110,23,2022_Sep_23_1156,templeton_exp2A_SD,2020.2.10,75.03143235427278,
,,,,,,,,,,,,,,,,,,,,,,42,0,42,0,,,,,,,,,,,,,,,,,,,,,,,,0.65,0.75,1.25,,,,,,,,,,,,,,,,,,,,,,,,,,,,,,,,,,,42,682.1137423769978,3,7,1,6,2,5,4,9,1,0,5,695.6274620909971,None,3,7,1,6,2,5,4,9,4,696.8537119339999,None,696.8537119339999,None,696.8537119339999,None,696.8537119339999,None,696.8537119339999,None,696.8537119339999,None,696.8537119339999,None,696.8537119339999,None,696.9469484879992,697.4534706889972,696.9469484879992,697.4534706889972,696.9469484879992,697.4534706889972,None,None,down,2.4443179099980625,696.9469484879992,None,None,None,c,0.48788263199821813,699.4394049439979,None,699.9458190229998,None,,,,,,,,,110,23,2022_Sep_23_1156,templeton_exp2A_SD,2020.2.10,75.03143235427278,
,,,,,,,,,,,,,,,,,,,,,,43,0,43,0,,,,,,,,,,,,,,,,,,,,,,,,2.05,0.75,2.05,,,,,,,,,,,,,,,,,,,,,,,,,,,,,,,,,,,43,687.0177688160002,0,9,2,6,3,7,4,5,0,1,5,700.5322444779995,None,0,9,2,6,3,1,4,5,5,703.1446089279998,None,703.1446089279998,None,703.1446089279998,None,703.1446089279998,None,703.1446089279998,None,703.1446089279998,None,703.1446089279998,None,703.1446089279998,None,701.8517699570002,702.3582820599986,701.8517699570002,702.3582820599986,701.8517699570002,702.3582820599986,None,None,down,1.166739669002709,703.1446089279998,None,None,None,z,1.145740260999446,704.3575335589994,None,705.5170225139991,None,,,,,,,,,110,23,2022_Sep_23_1156,templeton_exp2A_SD,2020.2.10,75.03143235427278,
,,,,,,,,,,,,,,,,,,,,,,44,0,44,0,,,,,,,,,,,,,,,,,,,,,,,,0.65,0.75,1.25,,,,,,,,,,,,,,,,,,,,,,,,,,,,,,,,,,,44,692.5877120709993,3,9,0,8,2,6,4,5,1,0,3,706.1035245819985,None,3,9,0,8,2,6,4,5,5,707.3163508889993,None,707.3163508889993,None,707.3163508889993,None,707.3163508889993,None,707.3163508889993,None,707.3163508889993,None,707.3163508889993,None,707.3163508889993,None,707.4230114819984,707.9294180029974,707.4230114819984,707.9294180029974,707.4230114819984,707.9294180029974,None,None,left,1.2242514249992382,707.4230114819984,None,None,None,z,0.31805962400176213,708.6892233349972,None,709.0223710609971,None,,,,,,,,,110,23,2022_Sep_23_1156,templeton_exp2A_SD,2020.2.10,75.03143235427278,
,,,,,,,,,,,,,,,,,,,,,,45,0,45,0,,,,,,,,,,,,,,,,,,,,,,,,0.65,0.75,1.25,,,,,,,,,,,,,,,,,,,,,,,,,,,,,,,,,,,45,701.0480175459998,3,8,1,5,4,9,0,6,1,0,0,714.5535996709987,None,3,8,1,5,4,9,0,6,5,715.7798124589972,None,715.7798124589972,None,715.7798124589972,None,715.7798124589972,None,715.7798124589972,None,715.7798124589972,None,715.7798124589972,None,715.7798124589972,None,715.873089372999,716.3796084479982,715.873089372999,716.3796084479982,715.873089372999,716.3796084479982,None,None,left,0.7421869860008883,715.873089372999,None,None,None,z,0.18781172199669527,716.659477680998,None,716.8727382599973,None,,,,,,,,,110,23,2022_Sep_23_1156,templeton_exp2A_SD,2020.2.10,75.03143235427278,
,,,,,,,,,,,,,,,,,,,,,,46,0,46,0,,,,,,,,,,,,,,,,,,,,,,,,2.05,0.75,2.05,,,,,,,,,,,,,,,,,,,,,,,,,,,,,,,,,,,46,703.9474965219997,4,7,0,8,1,6,3,9,0,0,1,717.4591919749982,None,4,7,0,8,1,6,3,9,6,720.0848662809985,None,720.0848662809985,None,720.0848662809985,None,720.0848662809985,None,720.0848662809985,None,720.0848662809985,None,720.0848662809985,None,720.0848662809985,None,718.7920683429984,719.298491780999,718.7920683429984,719.298491780999,718.7920683429984,719.298491780999,None,None,left,0.5944600459988578,720.0848662809985,None,None,None,z,0.15473839599872008,720.7246230279998,None,720.897877116,None,,,,,,,,,110,23,2022_Sep_23_1156,templeton_exp2A_SD,2020.2.10,75.03143235427278,
,,,,,,,,,,,,,,,,,,,,,,47,0,47,0,,,,,,,,,,,,,,,,,,,,,,,,0.65,0.75,1.25,,,,,,,,,,,,,,,,,,,,,,,,,,,,,,,,,,,47,707.968876054998,3,7,4,9,2,5,1,8,1,0,2,721.4709892059982,None,3,7,4,9,2,5,1,8,6,722.6838640669994,None,722.6838640669994,None,722.6838640669994,None,722.6838640669994,None,722.6838640669994,None,722.6838640669994,None,722.6838640669994,None,722.6838640669994,None,722.790529474998,723.2970125350002,722.790529474998,723.2970125350002,722.790529474998,723.2970125350002,None,None,left,0.720642691001558,722.790529474998,None,None,None,z,0.13176165299955755,723.5635167820001,None,723.7101346759991,None,,,,,,,,,110,23,2022_Sep_23_1156,templeton_exp2A_SD,2020.2.10,75.03143235427278,
,,,,,,,,,,,,,,,,,,,,,,48,0,48,0,,,,,,,,,,,,,,,,,,,,,,,,0.65,0.75,1.25,,,,,,,,,,,,,,,,,,,,,,,,,,,,,,,,,,,48,710.7838632989988,4,6,1,7,3,8,0,5,1,0,4,724.2965583789992,None,4,6,1,7,3,8,0,5,6,725.5227670709974,None,725.5227670709974,None,725.5227670709974,None,725.5227670709974,None,725.5227670709974,None,725.5227670709974,None,725.5227670709974,None,725.5227670709974,None,725.6294251079999,726.1359294089998,725.6294251079999,726.1359294089998,725.6294251079999,726.1359294089998,None,None,down,1.7378404299997783,725.6294251079999,None,None,None,x,0.20785447099842713,727.4154324949995,None,727.6419787879968,None,,,,,,,,,110,23,2022_Sep_23_1156,templeton_exp2A_SD,2020.2.10,75.03143235427278,
,,,,,,,,,,,,,,,,,,,,,,49,0,49,0,,,,,,,,,,,,,,,,,,,,,,,,2.05,0.75,2.05,,,,,,,,,,,,,,,,,,,,,,,,,,,,,,,,,,,49,714.716296669998,0,9,2,8,4,7,1,6,0,1,5,728.2284229649995,None,0,9,2,8,4,3,1,6,0,730.8541603399972,None,730.8541603399972,None,730.8541603399972,None,730.8541603399972,None,730.8541603399972,None,730.8541603399972,None,730.8541603399972,None,730.8541603399972,None,729.5479649759982,730.0544589679994,729.5479649759982,730.0544589679994,729.5479649759982,730.0544589679994,None,None,left,0.9531564709977829,730.8541603399972,None,None,None,z,0.19357941999987816,731.8537065279997,None,732.0669638990003,None,,,,,,,,,110,23,2022_Sep_23_1156,templeton_exp2A_SD,2020.2.10,75.03143235427278,
,,,,,,,,,,,,,,,,,,,,,,50,0,50,0,,,,,,,,,,,,,,,,,,,,,,,,2.05,0.75,2.05,,,,,,,,,,,,,,,,,,,,,,,,,,,,,,,,,,,50,719.1401640389995,2,7,1,8,0,6,3,9,0,1,0,732.6534183469994,None,4,7,1,8,0,6,3,9,1,735.2791144929979,None,735.2791144929979,None,735.2791144929979,None,735.2791144929979,None,735.2791144929979,None,735.2791144929979,None,735.2791144929979,None,735.2791144929979,None,733.9862953899974,734.4926857899991,733.9862953899974,734.4926857899991,733.9862953899974,734.4926857899991,None,None,down,1.7281534129979264,735.2791144929979,None,None,None,c,0.6994900300014706,737.051796582,None,737.7714576369981,None,,,,,,,,,110,23,2022_Sep_23_1156,templeton_exp2A_SD,2020.2.10,75.03143235427278,
,,,,,,,,,,,,,,,,,,,,,,51,0,51,0,,,,,,,,,,,,,,,,,,,,,,,,2.05,0.75,2.05,,,,,,,,,,,,,,,,,,,,,,,,,,,,,,,,,,,51,724.8429364919975,1,8,0,7,3,5,4,9,0,1,4,738.3579588969988,None,1,8,0,7,2,5,4,9,2,740.9835831579985,None,740.9835831579985,None,740.9835831579985,None,740.9835831579985,None,740.9835831579985,None,740.9835831579985,None,740.9835831579985,None,740.9835831579985,None,739.6774719519999,740.1839475599991,739.6774719519999,740.1839475599991,739.6774719519999,740.1839475599991,None,None,down,1.183672993000073,740.9835831579985,None,None,None,c,0.2375034090000554,742.2097747659973,None,742.4630546059998,None,,,,,,,,,110,23,2022_Sep_23_1156,templeton_exp2A_SD,2020.2.10,75.03143235427278,
,,,,,,,,,,,,,,,,,,,,,,52,0,52,0,,,,,,,,,,,,,,,,,,,,,,,,0.65,0.75,1.25,,,,,,,,,,,,,,,,,,,,,,,,,,,,,,,,,,,52,729.535217613,1,9,4,8,2,6,0,5,1,0,6,743.0495411519987,None,1,9,4,8,2,6,0,5,2,744.2757455969986,None,744.2757455969986,None,744.2757455969986,None,744.2757455969986,None,744.2757455969986,None,744.2757455969986,None,744.2757455969986,None,744.2757455969986,None,744.3689713909989,744.875539487999,744.3689713909989,744.875539487999,744.3689713909989,744.875539487999,None,None,left,0.966330923998612,744.3689713909989,None,None,None,z,0.1853423330030637,745.3819419409992,None,745.5818494479972,None,,,,,,,,,110,23,2022_Sep_23_1156,templeton_exp2A_SD,2020.2.10,75.03143235427278,
,,,,,,,,,,,,,,,,,,,,,,53,0,53,0,,,,,,,,,,,,,,,,,,,,,,,,0.65,0.75,1.25,,,,,,,,,,,,,,,,,,,,,,,,,,,,,,,,,,,53,732.6557846389987,3,9,0,5,4,7,1,6,1,0,1,746.1683346219979,None,3,9,0,5,4,7,1,6,2,747.394544368999,None,747.394544368999,None,747.394544368999,None,747.394544368999,None,747.394544368999,None,747.394544368999,None,747.394544368999,None,747.394544368999,None,747.5011265619978,748.0076430439985,747.5011265619978,748.0076430439985,747.5011265619978,748.0076430439985,None,None,left,1.0181404120012303,747.5011265619978,None,None,None,z,0.15180259900080273,748.5674712749969,None,748.7406726209992,None,,,,,,,,,110,23,2022_Sep_23_1156,templeton_exp2A_SD,2020.2.10,75.03143235427278,
,,,,,,,,,,,,,,,,,,,,,,54,0,54,0,,,,,,,,,,,,,,,,,,,,,,,,0.65,0.75,1.25,,,,,,,,,,,,,,,,,,,,,,,,,,,,,,,,,,,54,735.8131198289993,3,8,2,5,4,6,0,7,1,1,5,749.3271603899993,None,3,8,2,5,4,1,0,7,2,750.5400241139978,None,750.5400241139978,None,750.5400241139978,None,750.5400241139978,None,750.5400241139978,None,750.5400241139978,None,750.5400241139978,None,750.5400241139978,None,750.6466114689974,751.1531345179974,750.6466114689974,751.1531345179974,750.6466114689974,751.1531345179974,None,None,left,4.560615833001066,750.6466114689974,None,None,None,x,0.5250944789986534,755.2581768799973,None,755.8046394389967,None,,,,,,,,,110,23,2022_Sep_23_1156,templeton_exp2A_SD,2020.2.10,75.03143235427278,
,,,,,,,,,,,,,,,,,,,,,,55,0,55,0,,,,,,,,,,,,,,,,,,,,,,,,2.05,0.75,2.05,,,,,,,,,,,,,,,,,,,,,,,,,,,,,,,,,,,55,742.8759980709983,4,5,1,7,2,8,0,9,0,0,7,756.3911357609977,None,4,5,1,7,2,8,0,9,3,759.0166288639994,None,759.0166288639994,None,759.0166288639994,None,759.0166288639994,None,759.0166288639994,None,759.0166288639994,None,759.0166288639994,None,759.0166288639994,None,757.7105849079999,758.2171141789986,757.7105849079999,758.2171141789986,757.7105849079999,758.2171141789986,None,None,left,0.44664087900309823,759.0166288639994,None,None,None,z,0.2013493449994712,759.5098921899989,None,759.736477364997,None,,,,,,,,,110,23,2022_Sep_23_1156,templeton_exp2A_SD,2020.2.10,75.03143235427278,
,,,,,,,,,,,,,,,,,,,,,,56,0,56,0,,,,,,,,,,,,,,,,,,,,,,,,0.65,0.75,1.25,,,,,,,,,,,,,,,,,,,,,,,,,,,,,,,,,,,56,746.8082733640003,2,7,4,5,0,9,1,8,1,1,6,760.3229762269984,None,2,7,4,5,0,9,3,8,3,761.5358292199999,None,761.5358292199999,None,761.5358292199999,None,761.5358292199999,None,761.5358292199999,None,761.5358292199999,None,761.5358292199999,None,761.5358292199999,None,761.6291694840002,762.1355910780003,761.6291694840002,762.1355910780003,761.6291694840002,762.1355910780003,None,None,down,1.9220973459996458,761.6291694840002,None,None,None,c,0.2215325369979837,763.6017532409969,None,763.8415994959978,None,,,,,,,,,110,23,2022_Sep_23_1156,templeton_exp2A_SD,2020.2.10,75.03143235427278,
,,,,,,,,,,,,,,,,,,,,,,57,0,57,0,,,,,,,,,,,,,,,,,,,,,,,,2.05,0.75,2.05,,,,,,,,,,,,,,,,,,,,,,,,,,,,,,,,,,,57,750.9151340889985,0,8,1,7,2,6,3,9,0,0,1,764.4280312679984,None,0,8,1,7,2,6,3,9,0,767.0537639199974,None,767.0537639199974,None,767.0537639199974,None,767.0537639199974,None,767.0537639199974,None,767.0537639199974,None,767.0537639199974,None,767.0537639199974,None,765.7609412999991,766.2673900669979,765.7609412999991,766.2673900669979,765.7609412999991,766.2673900669979,None,None,down,2.1615021970028465,767.0537639199974,None,None,None,c,0.5250096269992355,769.2662635909983,None,769.8126790989991,None,,,,,,,,,110,23,2022_Sep_23_1156,templeton_exp2A_SD,2020.2.10,75.03143235427278,
,,,,,,,,,,,,,,,,,,,,,,58,0,58,0,,,,,,,,,,,,,,,,,,,,,,,,0.65,0.75,1.25,,,,,,,,,,,,,,,,,,,,,,,,,,,,,,,,,,,58,756.883726737,2,5,4,9,3,8,0,6,1,1,2,770.3858081129983,None,2,5,1,9,3,8,0,6,0,771.5986810180002,None,771.5986810180002,None,771.5986810180002,None,771.5986810180002,None,771.5986810180002,None,771.5986810180002,None,771.5986810180002,None,771.5986810180002,None,771.7053501359987,772.2117733529994,771.7053501359987,772.2117733529994,771.7053501359987,772.2117733529994,None,None,left,5.261925491999136,771.7053501359987,None,None,None,c,0.4373087639978621,777.0099654469996,None,777.4631234869994,None,,,,,,,,,110,23,2022_Sep_23_1156,templeton_exp2A_SD,2020.2.10,75.03143235427278,
,,,,,,,,,,,,,,,,,,,,,,59,0,59,0,,,,,,,,,,,,,,,,,,,,,,,,0.65,0.75,1.25,,,,,,,,,,,,,,,,,,,,,,,,,,,,,,,,,,,59,764.5359075669985,3,7,4,5,2,8,0,6,1,1,0,778.0496206349999,None,1,7,4,5,2,8,0,6,0,779.2758235059991,None,779.2758235059991,None,779.2758235059991,None,779.2758235059991,None,779.2758235059991,None,779.2758235059991,None,779.2758235059991,None,779.2758235059991,None,779.382392026997,779.8889144899986,779.382392026997,779.8889144899986,779.382392026997,779.8889144899986,None,None,down,1.416872259000229,779.382392026997,None,None,None,z,0.5028139060013928,780.8484688209974,None,781.3682889029988,None,,,,,,,,,110,23,2022_Sep_23_1156,templeton_exp2A_SD,2020.2.10,75.03143235427278,
,,,,,,,,,,,,,,,,,,,,,,60,0,60,0,,,,,,,,,,,,,,,,,,,,,,,,2.05,0.75,2.05,,,,,,,,,,,,,,,,,,,,,,,,,,,,,,,,,,,60,798.9562079749994,2,8,3,9,4,5,0,6,0,1,0,812.4632058930001,None,1,8,3,9,4,5,0,6,1,815.088832854999,None,815.088832854999,None,815.088832854999,None,815.088832854999,None,815.088832854999,None,815.088832854999,None,815.088832854999,None,815.088832854999,None,813.7827424619973,814.2892163329998,813.7827424619973,814.2892163329998,813.7827424619973,814.2892163329998,None,None,down,0.8624394630023744,815.088832854999,None,None,None,z,0.2600483339992934,815.9952344729973,None,816.2750720969998,None,,,,,,,,,110,23,2022_Sep_23_1156,templeton_exp2A_SD,2020.2.10,75.03143235427278,
,,,,,,,,,,,,,,,,,,,,,,61,0,61,0,,,,,,,,,,,,,,,,,,,,,,,,2.05,0.75,2.05,,,,,,,,,,,,,,,,,,,,,,,,,,,,,,,,,,,61,803.3482605850004,2,8,4,6,0,9,3,7,0,0,3,816.8615563149979,None,2,8,4,6,0,9,3,7,2,819.4872404589987,None,819.4872404589987,None,819.4872404589987,None,819.4872404589987,None,819.4872404589987,None,819.4872404589987,None,819.4872404589987,None,819.4872404589987,None,818.1810742809976,818.6874679840002,818.1810742809976,818.6874679840002,818.1810742809976,818.6874679840002,None,None,left,0.6240924499979883,819.4872404589987,None,None,None,z,0.19764196500182152,820.1536581299988,None,820.3668870619986,None,,,,,,,,,110,23,2022_Sep_23_1156,templeton_exp2A_SD,2020.2.10,75.03143235427278,
,,,,,,,,,,,,,,,,,,,,,,62,0,62,0,,,,,,,,,,,,,,,,,,,,,,,,0.65,0.75,1.25,,,,,,,,,,,,,,,,,,,,,,,,,,,,,,,,,,,62,807.4403969949999,1,5,4,6,2,7,0,8,1,1,1,820.9533057789995,None,1,3,4,6,2,7,0,8,2,822.179567051,None,822.179567051,None,822.179567051,None,822.179567051,None,822.179567051,None,822.179567051,None,822.179567051,None,822.179567051,None,822.2861807079971,822.7925971379991,822.2861807079971,822.7925971379991,822.2861807079971,822.7925971379991,None,None,down,1.561139978999563,822.2861807079971,None,None,None,x,0.3324700519988255,823.8988366539998,None,824.245366616,None,,,,,,,,,110,23,2022_Sep_23_1156,templeton_exp2A_SD,2020.2.10,75.03143235427278,
,,,,,,,,,,,,,,,,,,,,,,63,0,63,0,,,,,,,,,,,,,,,,,,,,,,,,2.05,0.75,2.05,,,,,,,,,,,,,,,,,,,,,,,,,,,,,,,,,,,63,811.317246882998,2,5,3,8,1,6,0,9,0,0,2,824.8318343469982,None,2,5,3,8,1,6,0,9,3,827.4575414309984,None,827.4575414309984,None,827.4575414309984,None,827.4575414309984,None,827.4575414309984,None,827.4575414309984,None,827.4575414309984,None,827.4575414309984,None,826.1513698169983,826.6577979679969,826.1513698169983,826.6577979679969,826.1513698169983,826.6577979679969,None,None,left,0.4617267809990153,827.4575414309984,None,None,None,z,0.2193052760012506,827.963979660999,None,828.2038688419998,None,,,,,,,,,110,23,2022_Sep_23_1156,templeton_exp2A_SD,2020.2.10,75.03143235427278,
,,,,,,,,,,,,,,,,,,,,,,64,0,64,0,,,,,,,,,,,,,,,,,,,,,,,,0.65,0.75,1.25,,,,,,,,,,,,,,,,,,,,,,,,,,,,,,,,,,,64,815.274858427998,1,9,3,8,4,7,2,5,1,0,1,828.790370527,None,1,9,3,8,4,7,2,5,3,830.0031933949977,None,830.0031933949977,None,830.0031933949977,None,830.0031933949977,None,830.0031933949977,None,830.0031933949977,None,830.0031933949977,None,830.0031933949977,None,830.1097912279984,830.616303543,830.1097912279984,830.616303543,830.1097912279984,830.616303543,None,None,left,0.649535462998756,830.1097912279984,None,None,None,z,0.24433189999763272,830.8029403069995,None,831.0694481339997,None,,,,,,,,,110,23,2022_Sep_23_1156,templeton_exp2A_SD,2020.2.10,75.03143235427278,
,,,,,,,,,,,,,,,,,,,,,,65,0,65,0,,,,,,,,,,,,,,,,,,,,,,,,2.05,0.75,2.05,,,,,,,,,,,,,,,,,,,,,,,,,,,,,,,,,,,65,818.1415376869991,3,8,1,5,4,6,0,9,0,0,6,831.6559519019975,None,3,8,1,5,4,6,0,9,4,834.2815878679976,None,834.2815878679976,None,834.2815878679976,None,834.2815878679976,None,834.2815878679976,None,834.2815878679976,None,834.2815878679976,None,834.2815878679976,None,832.9754817609974,833.4818903239975,832.9754817609974,833.4818903239975,832.9754817609974,833.4818903239975,None,None,left,2.2856821440000203,834.2815878679976,None,None,None,x,0.24926497799970093,836.6140090419976,None,836.8805942319996,None,,,,,,,,,110,23,2022_Sep_23_1156,templeton_exp2A_SD,2020.2.10,75.03143235427278,
,,,,,,,,,,,,,,,,,,,,,,66,0,66,0,,,,,,,,,,,,,,,,,,,,,,,,0.65,0.75,1.25,,,,,,,,,,,,,,,,,,,,,,,,,,,,,,,,,,,66,823.9551586479975,1,6,0,7,3,5,4,8,1,0,0,837.4670853609969,None,1,6,0,7,3,5,4,8,4,838.6799069669978,None,838.6799069669978,None,838.6799069669978,None,838.6799069669978,None,838.6799069669978,None,838.6799069669978,None,838.6799069669978,None,838.6799069669978,None,838.7865873569972,839.2929929149977,838.7865873569972,839.2929929149977,838.7865873569972,839.2929929149977,None,None,down,1.3086336599990318,838.7865873569972,None,None,None,x,0.2131580560017028,840.1460864629989,None,840.3725875259988,None,,,,,,,,,110,23,2022_Sep_23_1156,templeton_exp2A_SD,2020.2.10,75.03143235427278,
,,,,,,,,,,,,,,,,,,,,,,67,0,67,0,,,,,,,,,,,,,,,,,,,,,,,,0.65,0.75,1.25,,,,,,,,,,,,,,,,,,,,,,,,,,,,,,,,,,,67,827.4434846250006,0,7,2,5,3,8,1,9,1,1,3,840.9591133839967,None,0,7,2,4,3,8,1,9,4,842.1719181139997,None,842.1719181139997,None,842.1719181139997,None,842.1719181139997,None,842.1719181139997,None,842.1719181139997,None,842.1719181139997,None,842.1719181139997,None,842.2785560550001,842.7850657159979,842.2785560550001,842.7850657159979,842.2785560550001,842.7850657159979,None,None,left,2.7367136309985653,842.2785560550001,None,None,None,z,0.2231343960011145,845.0641372639984,None,845.304083125,None,,,,,,,,,110,23,2022_Sep_23_1156,templeton_exp2A_SD,2020.2.10,75.03143235427278,
,,,,,,,,,,,,,,,,,,,,,,68,0,68,0,,,,,,,,,,,,,,,,,,,,,,,,0.65,0.75,1.25,,,,,,,,,,,,,,,,,,,,,,,,,,,,,,,,,,,68,832.3765895769975,0,8,2,9,3,6,4,7,1,1,7,845.8905250689968,None,0,8,2,9,3,6,4,1,4,847.1034414409987,None,847.1034414409987,None,847.1034414409987,None,847.1034414409987,None,847.1034414409987,None,847.1034414409987,None,847.1034414409987,None,847.1034414409987,None,847.2100184759984,847.7164997239997,847.2100184759984,847.7164997239997,847.2100184759984,847.7164997239997,None,None,down,2.3252450239997415,847.2100184759984,None,None,None,x,0.2167684360028943,849.5825055879977,None,849.822356102999,None,,,,,,,,,110,23,2022_Sep_23_1156,templeton_exp2A_SD,2020.2.10,75.03143235427278,
,,,,,,,,,,,,,,,,,,,,,,69,0,69,0,,,,,,,,,,,,,,,,,,,,,,,,2.05,0.75,2.05,,,,,,,,,,,,,,,,,,,,,,,,,,,,,,,,,,,69,836.8931508620008,2,6,4,5,3,8,0,9,0,1,2,850.3954921629993,None,2,6,1,5,3,8,0,9,5,853.007860679998,None,853.007860679998,None,853.007860679998,None,853.007860679998,None,853.007860679998,None,853.007860679998,None,853.007860679998,None,853.007860679998,None,851.7150287819968,852.2214306469978,851.7150287819968,852.2214306469978,851.7150287819968,852.2214306469978,860.9648647209979,None,down,9.183310290001828,853.007860679998,None,None,None,z,0.5949450580010307,862.2443308259972,None,862.8574176629991,None,,,,,,,,,110,23,2022_Sep_23_1156,templeton_exp2A_SD,2020.2.10,75.03143235427278,
,,,,,,,,,,,,,,,,,,,,,,70,0,70,0,,,,,,,,,,,,,,,,,,,,,,,,0.65,0.75,1.25,,,,,,,,,,,,,,,,,,,,,,,,,,,,,,,,,,,70,849.9311081519991,0,9,3,7,1,6,2,5,1,0,5,863.4439250409996,None,0,9,3,7,1,6,2,5,5,864.6701022659981,None,864.6701022659981,None,864.6701022659981,None,864.6701022659981,None,864.6701022659981,None,864.6701022659981,None,864.6701022659981,None,864.6701022659981,None,864.7633702359999,865.2698789529968,864.7633702359999,865.2698789529968,864.7633702359999,865.2698789529968,None,None,left,1.3639000920011313,864.7633702359999,None,None,None,x,0.4551094970011036,866.1761271549985,None,866.6559853299987,None,,,,,,,,,110,23,2022_Sep_23_1156,templeton_exp2A_SD,2020.2.10,75.03143235427278,
,,,,,,,,,,,,,,,,,,,,,,71,0,71,0,,,,,,,,,,,,,,,,,,,,,,,,0.65,0.75,1.25,,,,,,,,,,,,,,,,,,,,,,,,,,,,,,,,,,,71,853.7284659949983,3,8,4,9,0,7,2,6,1,1,4,867.242494656999,None,3,8,4,9,1,7,2,6,5,868.4686598749977,None,868.4686598749977,None,868.4686598749977,None,868.4686598749977,None,868.4686598749977,None,868.4686598749977,None,868.4686598749977,None,868.4686598749977,None,868.5619353119982,869.0683856899996,868.5619353119982,869.0683856899996,868.5619353119982,869.0683856899996,None,None,left,1.3732410240008903,868.5619353119982,None,None,None,x,0.2592369160011003,869.9880509489994,None,870.2679443939996,None,,,,,,,,,110,23,2022_Sep_23_1156,templeton_exp2A_SD,2020.2.10,75.03143235427278,
,,,,,,,,,,,,,,,,,,,,,,72,0,72,0,,,,,,,,,,,,,,,,,,,,,,,,2.05,0.75,2.05,,,,,,,,,,,,,,,,,,,,,,,,,,,,,,,,,,,72,857.3399781049993,1,6,0,9,4,8,2,5,0,1,1,870.8544428200003,None,1,3,0,9,4,8,2,5,6,873.4667209489999,None,873.4667209489999,None,873.4667209489999,None,873.4667209489999,None,873.4667209489999,None,873.4667209489999,None,873.4667209489999,None,873.4667209489999,None,872.1605148509989,872.6670003149993,872.1605148509989,872.6670003149993,872.1605148509989,872.6670003149993,None,None,down,1.8045411970015266,873.4667209489999,None,None,None,z,0.5038903300010134,875.3194211969967,None,875.8391514519972,None,,,,,,,,,110,23,2022_Sep_23_1156,templeton_exp2A_SD,2020.2.10,75.03143235427278,
,,,,,,,,,,,,,,,,,,,,,,73,0,73,0,,,,,,,,,,,,,,,,,,,,,,,,2.05,0.75,2.05,,,,,,,,,,,,,,,,,,,,,,,,,,,,,,,,,,,73,862.9125221459981,0,5,2,7,1,9,3,6,0,0,6,876.4256531589999,None,0,5,2,7,1,9,3,6,7,879.0512925529983,None,879.0512925529983,None,879.0512925529983,None,879.0512925529983,None,879.0512925529983,None,879.0512925529983,None,879.0512925529983,None,879.0512925529983,None,877.745123187,878.2515829719996,877.745123187,878.2515829719996,877.745123187,878.2515829719996,None,None,left,1.0999762559986266,879.0512925529983,None,None,None,z,0.21770601400203304,880.1975679979987,None,880.437436106,None,,,,,,,,,110,23,2022_Sep_23_1156,templeton_exp2A_SD,2020.2.10,75.03143235427278,
,,,,,,,,,,,,,,,,,,,,,,74,0,74,0,,,,,,,,,,,,,,,,,,,,,,,,2.05,0.75,2.05,,,,,,,,,,,,,,,,,,,,,,,,,,,,,,,,,,,74,867.5117345779981,1,7,3,8,4,9,0,6,0,1,2,881.0239305999967,None,1,7,2,8,4,9,0,6,0,883.6495066509997,None,883.6495066509997,None,883.6495066509997,None,883.6495066509997,None,883.6495066509997,None,883.6495066509997,None,883.6495066509997,None,883.6495066509997,None,882.3567569949992,882.863220236999,882.3567569949992,882.863220236999,882.3567569949992,882.863220236999,None,None,left,1.7177159000020765,883.6495066509997,None,None,None,x,0.6863479530002223,885.4089345139982,None,886.1152726239998,None,,,,,,,,,110,23,2022_Sep_23_1156,templeton_exp2A_SD,2020.2.10,75.03143235427278,
,,,,,,,,,,,,,,,,,,,,,,75,0,75,0,,,,,,,,,,,,,,,,,,,,,,,,2.05,0.75,2.05,,,,,,,,,,,,,,,,,,,,,,,,,,,,,,,,,,,75,883.7928702780009,0,7,2,8,4,6,3,9,0,1,6,897.3110127740001,None,0,7,2,8,4,6,1,9,1,899.936736771997,None,899.936736771997,None,899.936736771997,None,899.936736771997,None,899.936736771997,None,899.936736771997,None,899.936736771997,None,899.936736771997,None,898.6438767319996,899.1503913779998,898.6438767319996,899.1503913779998,898.6438767319996,899.1503913779998,None,None,down,1.9345496370006003,899.936736771997,None,None,None,z,0.8686464620004699,901.9226259919997,None,902.8156370739998,None,,,,,,,,,110,23,2022_Sep_23_1156,templeton_exp2A_SD,2020.2.10,75.03143235427278,
,,,,,,,,,,,,,,,,,,,,,,76,0,76,0,,,,,,,,,,,,,,,,,,,,,,,,2.05,0.75,2.05,,,,,,,,,,,,,,,,,,,,,,,,,,,,,,,,,,,76,889.8860036549995,3,6,4,8,0,9,2,5,0,0,2,903.388727360998,None,3,6,4,8,0,9,2,5,2,906.0010629559983,None,906.0010629559983,None,906.0010629559983,None,906.0010629559983,None,906.0010629559983,None,906.0010629559983,None,906.0010629559983,None,906.0010629559983,None,904.708277578,905.2146671129995,904.708277578,905.2146671129995,904.708277578,905.2146671129995,None,None,left,2.0782572879979853,906.0010629559983,None,None,None,z,0.39901957400070387,908.1203111389987,None,908.5334418989987,None,,,,,,,,,110,23,2022_Sep_23_1156,templeton_exp2A_SD,2020.2.10,75.03143235427278,
,,,,,,,,,,,,,,,,,,,,,,77,0,77,0,,,,,,,,,,,,,,,,,,,,,,,,0.65,0.75,1.25,,,,,,,,,,,,,,,,,,,,,,,,,,,,,,,,,,,77,895.6042828760001,2,8,0,5,3,7,1,9,1,0,2,909.1199466599974,None,2,8,0,5,3,7,1,9,2,910.3327722899994,None,910.3327722899994,None,910.3327722899994,None,910.3327722899994,None,910.3327722899994,None,910.3327722899994,None,910.3327722899994,None,910.3327722899994,None,910.4394443139972,910.9458732200001,910.4394443139972,910.9458732200001,910.4394443139972,910.9458732200001,None,None,left,0.8078228630001831,910.4394443139972,None,None,None,z,0.3627856230014004,911.2924877749974,None,911.6789415719977,None,,,,,,,,,110,23,2022_Sep_23_1156,templeton_exp2A_SD,2020.2.10,75.03143235427278,
,,,,,,,,,,,,,,,,,,,,,,78,0,78,0,,,,,,,,,,,,,,,,,,,,,,,,2.05,0.75,2.05,,,,,,,,,,,,,,,,,,,,,,,,,,,,,,,,,,,78,898.7526830159986,3,6,0,8,1,7,4,9,0,1,0,912.2653284009975,None,2,6,0,8,1,7,4,9,3,914.8777157559998,None,914.8777157559998,None,914.8777157559998,None,914.8777157559998,None,914.8777157559998,None,914.8777157559998,None,914.8777157559998,None,914.8777157559998,None,913.5849101289969,914.0913577519968,913.5849101289969,914.0913577519968,913.5849101289969,914.0913577519968,None,None,down,1.3215654259984149,914.8777157559998,None,None,None,z,0.20477055900119012,916.2505011839967,None,916.4770839089979,None,,,,,,,,,110,23,2022_Sep_23_1156,templeton_exp2A_SD,2020.2.10,75.03143235427278,
,,,,,,,,,,,,,,,,,,,,,,79,0,79,0,,,,,,,,,,,,,,,,,,,,,,,,2.05,0.75,2.05,,,,,,,,,,,,,,,,,,,,,,,,,,,,,,,,,,,79,903.5504043129986,4,9,3,6,2,8,1,7,0,1,4,917.063549792998,None,4,9,3,6,0,8,1,7,0,919.6759316129974,None,919.6759316129974,None,919.6759316129974,None,919.6759316129974,None,919.6759316129974,None,919.6759316129974,None,919.6759316129974,None,919.6759316129974,None,918.3830561849973,918.889576218,918.3830561849973,918.889576218,918.3830561849973,918.889576218,None,None,left,3.0113637249996827,919.6759316129974,None,None,None,x,0.40716457400048967,922.7281216509982,None,923.1545690109997,None,,,,,,,,,110,23,2022_Sep_23_1156,templeton_exp2A_SD,2020.2.10,75.03143235427278,
,,,,,,,,,,,,,,,,,,,,,,80,0,80,0,,,,,,,,,,,,,,,,,,,,,,,,2.05,0.75,2.05,,,,,,,,,,,,,,,,,,,,,,,,,,,,,,,,,,,80,910.226520324999,0,6,3,8,4,9,1,5,0,1,2,923.7410699209977,None,0,6,2,8,4,9,1,5,1,926.3666731759986,None,926.3666731759986,None,926.3666731759986,None,926.3666731759986,None,926.3666731759986,None,926.3666731759986,None,926.3666731759986,None,926.3666731759986,None,925.0604922539969,925.5669464139974,925.0604922539969,925.5669464139974,925.0604922539969,925.5669464139974,None,None,down,1.4885968350026815,926.3666731759986,None,None,None,z,0.7717887250000786,927.8994955749986,None,928.6857937549976,None,,,,,,,,,110,23,2022_Sep_23_1156,templeton_exp2A_SD,2020.2.10,75.03143235427278,
,,,,,,,,,,,,,,,,,,,,,,81,0,81,0,,,,,,,,,,,,,,,,,,,,,,,,0.65,0.75,1.25,,,,,,,,,,,,,,,,,,,,,,,,,,,,,,,,,,,81,915.759992244999,1,9,2,6,4,8,0,7,1,0,2,929.2722901829984,None,1,9,2,6,4,8,0,7,1,930.4851414259974,None,930.4851414259974,None,930.4851414259974,None,930.4851414259974,None,930.4851414259974,None,930.4851414259974,None,930.4851414259974,None,930.4851414259974,None,930.5918096389978,931.0982493869997,930.5918096389978,931.0982493869997,930.5918096389978,931.0982493869997,None,None,left,3.0474677860001975,930.5918096389978,None,None,None,z,0.33937222600070527,933.6839328179994,None,934.0437565119973,None,,,,,,,,,110,23,2022_Sep_23_1156,templeton_exp2A_SD,2020.2.10,75.03143235427278,
,,,,,,,,,,,,,,,,,,,,,,82,0,82,0,,,,,,,,,,,,,,,,,,,,,,,,0.65,0.75,1.25,,,,,,,,,,,,,,,,,,,,,,,,,,,,,,,,,,,82,921.1159637300007,2,6,1,8,0,5,4,9,1,0,1,934.6302327049998,None,2,6,1,8,0,5,4,9,1,935.8563782799974,None,935.8563782799974,None,935.8563782799974,None,935.8563782799974,None,935.8563782799974,None,935.8563782799974,None,935.8563782799974,None,935.8563782799974,None,935.949770944997,936.4562587189976,935.949770944997,936.4562587189976,935.949770944997,936.4562587189976,None,None,left,0.7774957760011603,935.949770944997,None,None,None,z,0.2311368880000373,936.776132439998,None,937.0293175890001,None,,,,,,,,,110,23,2022_Sep_23_1156,templeton_exp2A_SD,2020.2.10,75.03143235427278,
,,,,,,,,,,,,,,,,,,,,,,83,0,83,0,,,,,,,,,,,,,,,,,,,,,,,,2.05,0.75,2.05,,,,,,,,,,,,,,,,,,,,,,,,,,,,,,,,,,,83,924.0996948829998,2,8,0,7,4,9,3,5,0,0,7,937.6024155749983,None,2,8,0,7,4,9,3,5,2,940.2147958859969,None,940.2147958859969,None,940.2147958859969,None,940.2147958859969,None,940.2147958859969,None,940.2147958859969,None,940.2147958859969,None,940.2147958859969,None,938.9219718509994,939.4283953359991,938.9219718509994,939.4283953359991,938.9219718509994,939.4283953359991,None,None,left,0.8564620049983205,940.2147958859969,None,None,None,z,0.15011489000244183,941.1211545139995,None,941.2943819049979,None,,,,,,,,,110,23,2022_Sep_23_1156,templeton_exp2A_SD,2020.2.10,75.03143235427278,
,,,,,,,,,,,,,,,,,,,,,,84,0,84,0,,,,,,,,,,,,,,,,,,,,,,,,0.65,0.75,1.25,,,,,,,,,,,,,,,,,,,,,,,,,,,,,,,,,,,84,928.3678362889987,1,6,3,9,0,7,2,5,1,0,5,941.8808020369979,None,1,6,3,9,0,7,2,5,2,943.1067873829998,None,943.1067873829998,None,943.1067873829998,None,943.1067873829998,None,943.1067873829998,None,943.1067873829998,None,943.1067873829998,None,943.1067873829998,None,943.2003091979968,943.706835738998,943.2003091979968,943.706835738998,943.2003091979968,943.706835738998,None,None,left,1.8309564189985394,943.2003091979968,None,None,None,x,0.23174271900279564,945.079582741997,None,945.3328424189967,None,,,,,,,,,110,23,2022_Sep_23_1156,templeton_exp2A_SD,2020.2.10,75.03143235427278,
,,,,,,,,,,,,,,,,,,,,,,85,0,85,0,,,,,,,,,,,,,,,,,,,,,,,,2.05,0.75,2.05,,,,,,,,,,,,,,,,,,,,,,,,,,,,,,,,,,,85,932.4056968830009,3,8,1,6,2,9,4,7,0,0,1,945.9193292409982,None,3,8,1,6,2,9,4,7,3,948.5449958019999,None,948.5449958019999,None,948.5449958019999,None,948.5449958019999,None,948.5449958019999,None,948.5449958019999,None,948.5449958019999,None,948.5449958019999,None,947.2388217729967,947.7452346600003,947.2388217729967,947.7452346600003,947.2388217729967,947.7452346600003,None,None,left,0.6062743199981924,948.5449958019999,None,None,None,z,0.2651768979994813,949.1980917259971,None,949.4779331099999,None,,,,,,,,,110,23,2022_Sep_23_1156,templeton_exp2A_SD,2020.2.10,75.03143235427278,
,,,,,,,,,,,,,,,,,,,,,,86,0,86,0,,,,,,,,,,,,,,,,,,,,,,,,0.65,0.75,1.25,,,,,,,,,,,,,,,,,,,,,,,,,,,,,,,,,,,86,936.551861562999,0,5,4,7,3,8,1,6,1,1,4,950.0643712359997,None,0,5,4,7,2,8,1,6,3,951.2906170259994,None,951.2906170259994,None,951.2906170259994,None,951.2906170259994,None,951.2906170259994,None,951.2906170259994,None,951.2906170259994,None,951.2906170259994,None,951.397210064999,951.903719042999,951.397210064999,951.903719042999,951.397210064999,951.903719042999,None,None,left,2.8420591070025694,951.397210064999,None,None,None,x,0.27781634200073313,954.2894259829991,None,954.5826675139979,None,,,,,,,,,110,23,2022_Sep_23_1156,templeton_exp2A_SD,2020.2.10,75.03143235427278,
,,,,,,,,,,,,,,,,,,,,,,87,0,87,0,,,,,,,,,,,,,,,,,,,,,,,,2.05,0.75,2.05,,,,,,,,,,,,,,,,,,,,,,,,,,,,,,,,,,,87,941.6567379709995,1,6,4,8,2,5,0,7,0,0,6,955.1691633699993,None,1,6,4,8,2,5,0,7,4,957.7948188459995,None,957.7948188459995,None,957.7948188459995,None,957.7948188459995,None,957.7948188459995,None,957.7948188459995,None,957.7948188459995,None,957.7948188459995,None,956.5019891819975,957.0083671409993,956.5019891819975,957.0083671409993,956.5019891819975,957.0083671409993,None,None,left,0.47644094100178336,957.7948188459995,None,None,None,z,0.23664142499910668,958.314643406,None,958.5678226479977,None,,,,,,,,,110,23,2022_Sep_23_1156,templeton_exp2A_SD,2020.2.10,75.03143235427278,
,,,,,,,,,,,,,,,,,,,,,,88,0,88,0,,,,,,,,,,,,,,,,,,,,,,,,0.65,0.75,1.25,,,,,,,,,,,,,,,,,,,,,,,,,,,,,,,,,,,88,945.6397356529997,0,9,4,8,1,6,2,5,1,1,5,959.1543012749971,None,0,9,4,8,1,3,2,5,4,960.3671330259967,None,960.3671330259967,None,960.3671330259967,None,960.3671330259967,None,960.3671330259967,None,960.3671330259967,None,960.3671330259967,None,960.3671330259967,None,960.4604548649986,960.9669210079992,960.4604548649986,960.9669210079992,960.4604548649986,960.9669210079992,None,None,left,0.9307975000010629,960.4604548649986,None,None,None,z,0.189827302001504,961.4334447289984,None,961.6466406209984,None,,,,,,,,,110,23,2022_Sep_23_1156,templeton_exp2A_SD,2020.2.10,75.03143235427278,
,,,,,,,,,,,,,,,,,,,,,,89,0,89,0,,,,,,,,,,,,,,,,,,,,,,,,2.05,0.75,2.05,,,,,,,,,,,,,,,,,,,,,,,,,,,,,,,,,,,89,948.7192120809996,2,7,3,6,4,9,1,5,0,1,3,962.2331135629975,None,2,7,3,0,4,9,1,5,0,964.8454616879972,None,964.8454616879972,None,964.8454616879972,None,964.8454616879972,None,964.8454616879972,None,964.8454616879972,None,964.8454616879972,None,964.8454616879972,None,963.5525570419995,964.0591385209991,963.5525570419995,964.0591385209991,963.5525570419995,964.0591385209991,None,None,left,0.7218060570012312,964.8454616879972,None,None,None,z,0.15683854499729932,965.6184989449976,None,965.7917712059971,None,,,,,,,,,110,23,2022_Sep_23_1156,templeton_exp2A_SD,2020.2.10,75.03143235427278,
,,,,,,,,,,,,,,,,,,,,,,90,0,90,0,,,,,,,,,,,,,,,,,,,,,,,,2.05,0.75,2.05,,,,,,,,,,,,,,,,,,,,,,,,,,,,,,,,,,,90,980.730821803998,2,7,1,6,0,8,4,5,0,1,2,994.2477010959992,None,2,7,3,6,0,8,4,5,1,996.8733467299971,None,996.8733467299971,None,996.8733467299971,None,996.8733467299971,None,996.8733467299971,None,996.8733467299971,None,996.8733467299971,None,996.8733467299971,None,995.5671186049985,996.0736375769993,995.5671186049985,996.0736375769993,995.5671186049985,996.0736375769993,None,None,down,1.0699150170003122,996.8733467299971,None,None,None,x,0.31039812699964386,997.9928773459978,None,998.326096159999,None,,,,,,,,,110,23,2022_Sep_23_1156,templeton_exp2A_SD,2020.2.10,75.03143235427278,
,,,,,,,,,,,,,,,,,,,,,,91,0,91,0,,,,,,,,,,,,,,,,,,,,,,,,0.65,0.75,1.25,,,,,,,,,,,,,,,,,,,,,,,,,,,,,,,,,,,91,985.3993711429976,4,6,3,9,2,7,1,5,1,1,0,998.91253994,None,0,6,3,9,2,7,1,5,1,1000.1387761549995,None,1000.1387761549995,None,1000.1387761549995,None,1000.1387761549995,None,1000.1387761549995,None,1000.1387761549995,None,1000.1387761549995,None,1000.1387761549995,None,1000.2319942229988,1000.7385525789978,1000.2319942229988,1000.7385525789978,1000.2319942229988,1000.7385525789978,None,None,left,1.127358768000704,1000.2319942229988,None,None,None,x,0.17831627600025968,1001.4049646450003,None,1001.6048406399968,None,,,,,,,,,110,23,2022_Sep_23_1156,templeton_exp2A_SD,2020.2.10,75.03143235427278,
,,,,,,,,,,,,,,,,,,,,,,92,0,92,0,,,,,,,,,,,,,,,,,,,,,,,,0.65,0.75,1.25,,,,,,,,,,,,,,,,,,,,,,,,,,,,,,,,,,,92,988.677940360998,3,9,2,6,1,8,4,7,1,1,6,1002.1913391649978,None,3,9,2,6,1,8,0,7,1,1003.4041598939984,None,1003.4041598939984,None,1003.4041598939984,None,1003.4041598939984,None,1003.4041598939984,None,1003.4041598939984,None,1003.4041598939984,None,1003.4041598939984,None,1003.5108734469977,1004.0172472909981,1003.5108734469977,1004.0172472909981,1003.5108734469977,1004.0172472909981,None,None,left,1.024404682997556,1003.5108734469977,None,None,None,z,0.14225448800061713,1004.5770296419978,None,1004.7369847459995,None,,,,,,,,,110,23,2022_Sep_23_1156,templeton_exp2A_SD,2020.2.10,75.03143235427278,
,,,,,,,,,,,,,,,,,,,,,,93,0,93,0,,,,,,,,,,,,,,,,,,,,,,,,2.05,0.75,2.05,,,,,,,,,,,,,,,,,,,,,,,,,,,,,,,,,,,93,991.8086255620001,2,9,4,6,0,8,1,5,0,1,0,1005.323470162999,None,3,9,4,6,0,8,1,5,2,1007.9491163009989,None,1007.9491163009989,None,1007.9491163009989,None,1007.9491163009989,None,1007.9491163009989,None,1007.9491163009989,None,1007.9491163009989,None,1007.9491163009989,None,1006.6429553799971,1007.149430317997,1006.6429553799971,1007.149430317997,1006.6429553799971,1007.149430317997,None,None,down,1.4821210100017197,1007.9491163009989,None,None,None,x,0.5014303300013125,1009.4818551629978,None,1010.0016397719992,None,,,,,,,,,110,23,2022_Sep_23_1156,templeton_exp2A_SD,2020.2.10,75.03143235427278,
,,,,,,,,,,,,,,,,,,,,,,94,0,94,0,,,,,,,,,,,,,,,,,,,,,,,,2.05,0.75,2.05,,,,,,,,,,,,,,,,,,,,,,,,,,,,,,,,,,,94,997.0751915459987,4,9,1,5,3,6,0,7,0,1,0,1010.5881226499987,None,2,9,1,5,3,6,0,7,3,1013.2138300499973,None,1013.2138300499973,None,1013.2138300499973,None,1013.2138300499973,None,1013.2138300499973,None,1013.2138300499973,None,1013.2138300499973,None,1013.2138300499973,None,1011.9076505379999,1012.4140843069981,1011.9076505379999,1012.4140843069981,1011.9076505379999,1012.4140843069981,None,None,down,1.3053732519983896,1013.2138300499973,None,None,None,x,0.4793438630003948,1014.5599278749978,None,1015.0530749779973,None,,,,,,,,,110,23,2022_Sep_23_1156,templeton_exp2A_SD,2020.2.10,75.03143235427278,
,,,,,,,,,,,,,,,,,,,,,,95,0,95,0,,,,,,,,,,,,,,,,,,,,,,,,2.05,0.75,2.05,,,,,,,,,,,,,,,,,,,,,,,,,,,,,,,,,,,95,1002.1270083359996,2,9,0,6,3,7,1,8,0,0,3,1015.6395710340003,None,2,9,0,6,3,7,1,8,4,1018.2652172889975,None,1018.2652172889975,None,1018.2652172889975,None,1018.2652172889975,None,1018.2652172889975,None,1018.2652172889975,None,1018.2652172889975,None,1018.2652172889975,None,1016.9723871219976,1017.4788371549985,1016.9723871219976,1017.4788371549985,1016.9723871219976,1017.4788371549985,None,None,left,0.3820393980022345,1018.2652172889975,None,None,None,z,0.12351285499971709,1018.6917604359987,None,1018.8383313459999,None,,,,,,,,,110,23,2022_Sep_23_1156,templeton_exp2A_SD,2020.2.10,75.03143235427278,
,,,,,,,,,,,,,,,,,,,,,,96,0,96,0,,,,,,,,,,,,,,,,,,,,,,,,0.65,0.75,1.25,,,,,,,,,,,,,,,,,,,,,,,,,,,,,,,,,,,96,1005.9088746599991,2,8,4,6,0,5,3,9,1,1,4,1019.4114322690002,None,2,8,4,6,1,5,3,9,4,1020.6243449909998,None,1020.6243449909998,None,1020.6243449909998,None,1020.6243449909998,None,1020.6243449909998,None,1020.6243449909998,None,1020.6243449909998,None,1020.6243449909998,None,1020.7309263219977,1021.2374008879997,1020.7309263219977,1021.2374008879997,1020.7309263219977,1021.2374008879997,None,None,left,1.8203522900003009,1020.7309263219977,None,None,None,x,0.2984018150018528,1022.5968754059977,None,1022.9167527119971,None,,,,,,,,,110,23,2022_Sep_23_1156,templeton_exp2A_SD,2020.2.10,75.03143235427278,
,,,,,,,,,,,,,,,,,,,,,,97,0,97,0,,,,,,,,,,,,,,,,,,,,,,,,2.05,0.75,2.05,,,,,,,,,,,,,,,,,,,,,,,,,,,,,,,,,,,97,1009.9907495589978,1,8,2,9,4,7,0,6,0,0,7,1023.503259060999,None,1,8,2,9,4,7,0,6,5,1026.128925789999,None,1026.128925789999,None,1026.128925789999,None,1026.128925789999,None,1026.128925789999,None,1026.128925789999,None,1026.128925789999,None,1026.128925789999,None,1024.8360823269977,1025.3425643679984,1024.8360823269977,1025.3425643679984,1024.8360823269977,1025.3425643679984,None,None,left,1.2543145499985258,1026.128925789999,None,None,None,z,0.180245109997486,1027.435037539999,None,1027.6349722449995,None,,,,,,,,,110,23,2022_Sep_23_1156,templeton_exp2A_SD,2020.2.10,75.03143235427278,
,,,,,,,,,,,,,,,,,,,,,,98,0,98,0,,,,,,,,,,,,,,,,,,,,,,,,0.65,0.75,1.25,,,,,,,,,,,,,,,,,,,,,,,,,,,,,,,,,,,98,1014.7090167509996,0,6,2,7,4,5,1,8,1,0,2,1028.2214282599998,None,0,6,2,7,4,5,1,8,5,1029.4476075389975,None,1029.4476075389975,None,1029.4476075389975,None,1029.4476075389975,None,1029.4476075389975,None,1029.4476075389975,None,1029.4476075389975,None,1029.4476075389975,None,1029.5542974620002,1030.0607256639996,1029.5542974620002,1030.0607256639996,1029.5542974620002,1030.0607256639996,None,None,left,2.4369294790012646,1029.5542974620002,None,None,None,z,0.2938343640016683,1032.0333492579994,None,1032.353191762999,None,,,,,,,,,110,23,2022_Sep_23_1156,templeton_exp2A_SD,2020.2.10,75.03143235427278,
,,,,,,,,,,,,,,,,,,,,,,99,0,99,0,,,,,,,,,,,,,,,,,,,,,,,,0.65,0.75,1.25,,,,,,,,,,,,,,,,,,,,,,,,,,,,,,,,,,,99,1019.4256084299996,2,9,0,7,4,6,3,5,1,0,1,1032.9396834559993,None,2,9,0,7,4,6,3,5,5,1034.165879557997,None,1034.165879557997,None,1034.165879557997,None,1034.165879557997,None,1034.165879557997,None,1034.165879557997,None,1034.165879557997,None,1034.165879557997,None,1034.2591816749991,1034.7656169809998,1034.2591816749991,1034.7656169809998,1034.2591816749991,1034.7656169809998,None,None,left,0.9960875760007184,1034.2591816749991,None,None,None,z,0.2684754729998531,1035.2987530439968,None,1035.5920054939997,None,,,,,,,,,110,23,2022_Sep_23_1156,templeton_exp2A_SD,2020.2.10,75.03143235427278,
,,,,,,,,,,,,,,,,,,,,,,100,0,100,0,,,,,,,,,,,,,,,,,,,,,,,,0.65,0.75,1.25,,,,,,,,,,,,,,,,,,,,,,,,,,,,,,,,,,,100,1022.6652617830005,1,9,3,6,2,7,0,5,1,1,7,1036.1784210219994,None,1,9,3,6,2,7,0,4,5,1037.404672007,None,1037.404672007,None,1037.404672007,None,1037.404672007,None,1037.404672007,None,1037.404672007,None,1037.404672007,None,1037.404672007,None,1037.497914372998,1038.004386056,1037.497914372998,1038.004386056,1037.497914372998,1038.004386056,None,None,down,1.3573066349999863,1037.497914372998,None,None,None,z,0.22982915000102366,1038.8974403350003,None,1039.1506383529995,None,,,,,,,,,110,23,2022_Sep_23_1156,templeton_exp2A_SD,2020.2.10,75.03143235427278,
,,,,,,,,,,,,,,,,,,,,,,101,0,101,0,,,,,,,,,,,,,,,,,,,,,,,,2.05,0.75,2.05,,,,,,,,,,,,,,,,,,,,,,,,,,,,,,,,,,,101,1026.2236158589985,4,8,1,7,2,5,3,6,0,1,5,1039.737044374,None,4,8,1,7,2,0,3,6,6,1042.3627301319975,None,1042.3627301319975,None,1042.3627301319975,None,1042.3627301319975,None,1042.3627301319975,None,1042.3627301319975,None,1042.3627301319975,None,1042.3627301319975,None,1041.069934834999,1041.5762776559968,1041.069934834999,1041.5762776559968,1041.069934834999,1041.5762776559968,None,None,down,1.5645783159998246,1042.3627301319975,None,None,None,z,0.5038014700003259,1043.9754647379996,None,1044.4952597869997,None,,,,,,,,,110,23,2022_Sep_23_1156,templeton_exp2A_SD,2020.2.10,75.03143235427278,
,,,,,,,,,,,,,,,,,,,,,,102,0,102,0,,,,,,,,,,,,,,,,,,,,,,,,2.05,0.75,2.05,,,,,,,,,,,,,,,,,,,,,,,,,,,,,,,,,,,102,1031.5683458219974,3,6,0,8,2,9,4,7,0,1,7,1045.0817515179988,None,3,6,0,8,2,9,4,1,7,1047.7074091180002,None,1047.7074091180002,None,1047.7074091180002,None,1047.7074091180002,None,1047.7074091180002,None,1047.7074091180002,None,1047.7074091180002,None,1047.7074091180002,None,1046.4012011759987,1046.9076842149989,1046.4012011759987,1046.9076842149989,1046.4012011759987,1046.9076842149989,None,None,down,1.1558499189995928,1047.7074091180002,None,None,None,z,0.300310458002059,1048.9069634769985,None,1049.2267824699993,None,,,,,,,,,110,23,2022_Sep_23_1156,templeton_exp2A_SD,2020.2.10,75.03143235427278,
,,,,,,,,,,,,,,,,,,,,,,103,0,103,0,,,,,,,,,,,,,,,,,,,,,,,,2.05,0.75,2.05,,,,,,,,,,,,,,,,,,,,,,,,,,,,,,,,,,,103,1036.3002763099976,2,7,3,5,1,6,0,8,0,0,0,1049.813287613997,None,2,7,3,5,1,6,0,8,8,1052.438964162,None,1052.438964162,None,1052.438964162,None,1052.438964162,None,1052.438964162,None,1052.438964162,None,1052.438964162,None,1052.438964162,None,1051.1327551369977,1051.6392712499983,1051.1327551369977,1051.6392712499983,1051.1327551369977,1051.6392712499983,None,None,left,0.6962938759970712,1052.438964162,None,None,None,z,0.21387326600233791,1053.1853094559992,None,1053.4252379159989,None,1,,,,,,,,110,23,2022_Sep_23_1156,templeton_exp2A_SD,2020.2.10,75.03143235427278,
,,,,,,,,,,,,,,,,,,,,,,104,0,104,0,,,,,,,,,,,,,,,,,,,,,,,,2.9000000000000004,1.6,2.9000000000000004,,,,,,,,,,,,,,,,,,,,,,,,,,,,,,,,,,,104,1040.495601527,3,6,2,9,0,5,4,8,0,1,3,1053.9983395739982,None,3,6,2,1,0,5,4,8,,1057.4636866,None,1057.4636866,None,1057.4636866,None,1057.4636866,None,1057.4636866,None,1057.4636866,None,1057.4636866,None,1057.4636866,None,1056.1708883779975,1056.6773256069973,1056.1708883779975,1056.6773256069973,1056.1708883779975,1056.6773256069973,None,None,down,1.3195193270003074,1057.4636866,None,None,None,z,0.4160673650003446,1058.8232070249978,None,1059.2630079859991,None,,0,1,1,,,,,110,23,2022_Sep_23_1156,templeton_exp2A_SD,2020.2.10,75.03143235427278,
,,,,,,,,,,,,,,,,,,,,,,105,0,105,0,,,,,,,,,,,,,,,,,,,,,,,,2.1,2.2,2.7,,,,,,,,,,,,,,,,,,,,,,,,,,,,,,,,,,,105,1067.6309252779974,0,5,3,7,2,6,1,8,1,1,5,1081.1480480179998,None,0,5,3,7,2,4,1,8,,1083.813701834999,None,1083.813701834999,None,1083.813701834999,None,1083.813701834999,None,1083.813701834999,None,1083.813701834999,None,1083.813701834999,None,1083.813701834999,None,1083.9203621809975,1084.4267964819992,1083.9203621809975,1084.4267964819992,1083.9203621809975,1084.4267964819992,None,None,down,0.9829156100022374,1083.9203621809975,None,None,None,z,1.0686156779993325,1084.9466551279984,None,1086.0395127329975,None,,1,1,1,,,,,110,23,2022_Sep_23_1156,templeton_exp2A_SD,2020.2.10,75.03143235427278,
,,,,,,,,,,,,,,,,,,,,,,106,0,106,0,,,,,,,,,,,,,,,,,,,,,,,,2.5,2.6,3.1,,,,,,,,,,,,,,,,,,,,,,,,,,,,,,,,,,,106,1073.1105550020002,0,6,4,9,3,5,2,8,1,1,4,1086.6126508569978,None,0,6,4,9,1,5,2,8,,1089.6781142349973,None,1089.6781142349973,None,1089.6781142349973,None,1089.6781142349973,None,1089.6781142349973,None,1089.6781142349973,None,1089.6781142349973,None,1089.6781142349973,None,1089.7848131459978,1090.2912811999995,1089.7848131459978,1090.2912811999995,1089.7848131459978,1090.2912811999995,None,None,left,1.3504569269971398,1089.7848131459978,None,None,None,x,0.25501773200085154,1091.1842021019984,None,1091.4641373699997,None,,2,1,1,,,,,110,23,2022_Sep_23_1156,templeton_exp2A_SD,2020.2.10,75.03143235427278,
,,,,,,,,,,,,,,,,,,,,,,107,0,107,0,,,,,,,,,,,,,,,,,,,,,,,,2.5,2.6,3.1,,,,,,,,,,,,,,,,,,,,,,,,,,,,,,,,,,,107,1078.5364093969984,2,8,4,9,3,7,0,6,1,1,4,1092.0505773259974,None,2,8,4,9,1,7,0,6,,1095.1294177519994,None,1095.1294177519994,None,1095.1294177519994,None,1095.1294177519994,None,1095.1294177519994,None,1095.1294177519994,None,1095.1294177519994,None,1095.1294177519994,None,1095.222735463998,1095.7291793529985,1095.222735463998,1095.7291793529985,1095.222735463998,1095.7291793529985,None,None,left,2.200439169002493,1095.222735463998,None,None,None,x,0.47607269000218366,1097.4751954389976,None,1097.9683351319982,None,,3,1,1,,,,,110,23,2022_Sep_23_1156,templeton_exp2A_SD,2020.2.10,75.03143235427278,
,,,,,,,,,,,,,,,,,,,,,,108,0,108,0,,,,,,,,,,,,,,,,,,,,,,,,2.5,2.6,3.1,,,,,,,,,,,,,,,,,,,,,,,,,,,,,,,,,,,108,1085.0420211749988,0,7,1,5,3,8,4,6,1,0,2,1098.554761288,None,0,7,1,5,3,8,4,6,,1101.633673471999,None,1101.633673471999,None,1101.633673471999,None,1101.633673471999,None,1101.633673471999,None,1101.633673471999,None,1101.633673471999,None,1101.633673471999,None,1101.7268593189983,1102.2333720770002,1101.7268593189983,1102.2333720770002,1101.7268593189983,1102.2333720770002,None,None,left,1.4564048110005388,1101.7268593189983,None,None,None,x,0.326274615003058,1103.2330123909996,None,1103.5795643279998,None,,4,1,1,,,,,110,23,2022_Sep_23_1156,templeton_exp2A_SD,2020.2.10,75.03143235427278,
,,,,,,,,,,,,,,,,,,,,,,109,0,109,0,,,,,,,,,,,,,,,,,,,,,,,,2.9000000000000004,1.6,2.9000000000000004,,,,,,,,,,,,,,,,,,,,,,,,,,,,,,,,,,,109,1090.6501046569974,2,5,4,8,3,9,0,7,0,1,6,1104.1526645369995,None,2,5,4,8,3,9,1,7,,1107.6178785529992,None,1107.6178785529992,None,1107.6178785529992,None,1107.6178785529992,None,1107.6178785529992,None,1107.6178785529992,None,1107.6178785529992,None,1107.6178785529992,None,1106.3252315499994,1106.831630007,1106.3252315499994,1106.831630007,1106.3252315499994,1106.831630007,None,None,down,1.5893758380007057,1107.6178785529992,None,None,None,z,0.2537798249977641,1109.2574037509985,None,1109.5372991849981,None,,5,2,2,,,,,110,23,2022_Sep_23_1156,templeton_exp2A_SD,2020.2.10,75.03143235427278,
,,,,,,,,,,,,,,,,,,,,,,110,0,110,0,,,,,,,,,,,,,,,,,,,,,,,,3.5,3.6,4.1,,,,,,,,,,,,,,,,,,,,,,,,,,,,,,,,,,,110,1096.608928704998,0,8,2,9,1,5,3,6,1,1,3,1110.1237681589992,None,0,8,2,4,1,5,3,6,,1114.1888556719969,None,1114.1888556719969,None,1114.1888556719969,None,1114.1888556719969,None,1114.1888556719969,None,1114.1888556719969,None,1114.1888556719969,None,1114.1888556719969,None,1114.295453898998,1114.801959827997,1114.295453898998,1114.801959827997,1114.295453898998,1114.801959827997,None,None,down,2.2237878659980197,1114.295453898998,None,None,None,c,0.36596486999769695,1116.5613254279997,None,1116.9478052119994,None,,6,2,2,,,,,110,23,2022_Sep_23_1156,templeton_exp2A_SD,2020.2.10,75.03143235427278,
,,,,,,,,,,,,,,,,,,,,,,111,0,111,0,,,,,,,,,,,,,,,,,,,,,,,,2.9000000000000004,1.6,2.9000000000000004,,,,,,,,,,,,,,,,,,,,,,,,,,,,,,,,,,,111,1104.0212970979992,2,7,3,8,1,6,0,9,0,0,4,1117.534257170999,None,2,7,3,8,1,6,0,9,,1121.0129354829987,None,1121.0129354829987,None,1121.0129354829987,None,1121.0129354829987,None,1121.0129354829987,None,1121.0129354829987,None,1121.0129354829987,None,1121.0129354829987,None,1119.7067579239992,1120.2132316089992,1119.7067579239992,1120.2132316089992,1119.7067579239992,1120.2132316089992,None,None,left,0.4983220850008365,1121.0129354829987,None,None,None,z,0.19188073899931624,1121.5593945649998,None,1121.7726521079967,None,,7,3,3,,,,,110,23,2022_Sep_23_1156,templeton_exp2A_SD,2020.2.10,75.03143235427278,
,,,,,,,,,,,,,,,,,,,,,,112,0,112,0,,,,,,,,,,,,,,,,,,,,,,,,2.9000000000000004,1.6,2.9000000000000004,,,,,,,,,,,,,,,,,,,,,,,,,,,,,,,,,,,112,1108.8454456619984,3,6,2,5,4,7,1,9,0,1,3,1122.3591521609997,None,3,6,2,0,4,7,1,9,,1125.8378152009973,None,1125.8378152009973,None,1125.8378152009973,None,1125.8378152009973,None,1125.8378152009973,None,1125.8378152009973,None,1125.8378152009973,None,1125.8378152009973,None,1124.531591191997,1125.038120191999,1124.531591191997,1125.038120191999,1124.531591191997,1125.038120191999,None,None,down,1.553452792999451,1125.8378152009973,None,None,None,x,0.450061753999762,1127.4372111079974,None,1127.903650166998,None,,8,4,4,,,,,110,23,2022_Sep_23_1156,templeton_exp2A_SD,2020.2.10,75.03143235427278,
,,,,,,,,,,,,,,,,,,,,,,113,0,113,0,,,,,,,,,,,,,,,,,,,,,,,,2.9000000000000004,1.6,2.9000000000000004,,,,,,,,,,,,,,,,,,,,,,,,,,,,,,,,,,,113,1114.9754692479983,4,9,3,6,2,7,0,5,0,1,6,1128.4901501859968,None,4,9,3,6,2,7,1,5,,1131.9688233449997,None,1131.9688233449997,None,1131.9688233449997,None,1131.9688233449997,None,1131.9688233449997,None,1131.9688233449997,None,1131.9688233449997,None,1131.9688233449997,None,1130.6626145189985,1131.1690503389982,1130.6626145189985,1131.1690503389982,1130.6626145189985,1131.1690503389982,None,None,down,1.9104349589979392,1131.9688233449997,None,None,None,z,0.3191607879998628,1133.928109870998,None,1134.261249203999,None,,9,5,5,,,,,110,23,2022_Sep_23_1156,templeton_exp2A_SD,2020.2.10,75.03143235427278,
,,,,,,,,,,,,,,,,,,,,,,114,0,114,0,,,,,,,,,,,,,,,,,,,,,,,,2.9000000000000004,1.6,2.9000000000000004,,,,,,,,,,,,,,,,,,,,,,,,,,,,,,,,,,,114,1121.3336896670007,0,9,3,6,1,5,4,8,0,0,2,1134.8477343469967,None,0,9,3,6,1,5,4,8,,1138.3130496509984,None,1138.3130496509984,None,1138.3130496509984,None,1138.3130496509984,None,1138.3130496509984,None,1138.3130496509984,None,1138.3130496509984,None,1138.3130496509984,None,1137.0202593229988,1137.526731668997,1137.0202593229988,1137.526731668997,1137.0202593229988,1137.526731668997,None,None,left,0.6541252299975895,1138.3130496509984,None,None,None,z,0.1477492500016524,1139.0194912539991,None,1139.192711413998,None,,10,6,6,,,,,110,23,2022_Sep_23_1156,templeton_exp2A_SD,2020.2.10,75.03143235427278,
,,,,,,,,,,,,,,,,,,,,,,115,0,115,0,,,,,,,,,,,,,,,,,,,,,,,,2.9000000000000004,1.6,2.9000000000000004,,,,,,,,,,,,,,,,,,,,,,,,,,,,,,,,,,,115,1126.2639039809983,4,8,2,6,1,9,3,5,0,1,6,1139.7791611369976,None,4,8,2,6,1,9,0,5,,1143.2445162389995,None,1143.2445162389995,None,1143.2445162389995,None,1143.2445162389995,None,1143.2445162389995,None,1143.2445162389995,None,1143.2445162389995,None,1143.2445162389995,None,1141.9517210609993,1142.4581882019993,1141.9517210609993,1142.4581882019993,1141.9517210609993,1142.4581882019993,None,None,down,2.098741893998522,1143.2445162389995,None,None,None,z,0.6328612940014864,1145.390423113,None,1146.043409095997,None,,11,7,7,,,,,110,23,2022_Sep_23_1156,templeton_exp2A_SD,2020.2.10,75.03143235427278,
,,,,,,,,,,,,,,,,,,,,,,116,0,116,0,,,,,,,,,,,,,,,,,,,,,,,,2.9000000000000004,1.6,2.9000000000000004,,,,,,,,,,,,,,,,,,,,,,,,,,,,,,,,,,,116,1133.1162692029975,1,9,3,7,4,8,2,6,0,1,5,1146.6298993749988,None,1,9,3,7,4,0,2,6,,1150.1086500619967,None,1150.1086500619967,None,1150.1086500619967,None,1150.1086500619967,None,1150.1086500619967,None,1150.1086500619967,None,1150.1086500619967,None,1150.1086500619967,None,1148.8023039109976,1149.3089140459997,1148.8023039109976,1149.3089140459997,1148.8023039109976,1149.3089140459997,None,None,down,1.9865144719988166,1150.1086500619967,None,None,None,z,0.21950163500150666,1152.1477823249988,None,1152.3876969039993,None,,12,8,8,,,,,110,23,2022_Sep_23_1156,templeton_exp2A_SD,2020.2.10,75.03143235427278,
,,,,,,,,,,,,,,,,,,,,,,117,0,117,0,,,,,,,,,,,,,,,,,,,,,,,,2.9000000000000004,1.6,2.9000000000000004,,,,,,,,,,,,,,,,,,,,,,,,,,,,,,,,,,,117,1139.4599512290006,0,7,2,9,3,6,4,8,0,1,5,1152.9742027749999,None,0,7,2,9,3,1,4,8,,1156.4394934019983,None,1156.4394934019983,None,1156.4394934019983,None,1156.4394934019983,None,1156.4394934019983,None,1156.4394934019983,None,1156.4394934019983,None,1156.4394934019983,None,1155.1466603659974,1155.653179820998,1155.1466603659974,1155.653179820998,1155.1466603659974,1155.653179820998,None,None,down,2.071816719999333,1156.4394934019983,None,None,None,x,0.5445377770010964,1158.5587487470002,None,1159.118485584997,None,,13,9,9,,,,,110,23,2022_Sep_23_1156,templeton_exp2A_SD,2020.2.10,75.03143235427278,
,,,,,,,,,,,,,,,,,,,,,,118,0,118,0,,,,,,,,,,,,,,,,,,,,,,,,2.9000000000000004,1.6,2.9000000000000004,,,,,,,,,,,,,,,,,,,,,,,,,,,,,,,,,,,118,1146.1911586739989,2,6,4,7,0,9,3,8,0,1,2,1159.704905876999,None,2,6,1,7,0,9,3,8,,1163.1836502179976,None,1163.1836502179976,None,1163.1836502179976,None,1163.1836502179976,None,1163.1836502179976,None,1163.1836502179976,None,1163.1836502179976,None,1163.1836502179976,None,1161.8774931199987,1162.3839751220003,1161.8774931199987,1162.3839751220003,1161.8774931199987,1162.3839751220003,None,None,down,2.631609849002416,1163.1836502179976,None,None,None,z,0.2327246649983863,1165.8626085999967,None,1166.1158460979968,None,,14,10,10,,,,,110,23,2022_Sep_23_1156,templeton_exp2A_SD,2020.2.10,75.03143235427278,
,,,,,,,,,,,,,,,,,,,,,,119,0,119,0,,,,,,,,,,,,,,,,,,,,,,,,2.3000000000000003,2.4000000000000004,2.9000000000000004,,,,,,,,,,,,,,,,,,,,,,,,,,,,,,,,,,,119,1153.18815998,3,5,4,8,0,7,2,6,1,0,0,1166.702343686,None,3,5,4,8,0,7,2,6,,1169.5678866729977,None,1169.5678866729977,None,1169.5678866729977,None,1169.5678866729977,None,1169.5678866729977,None,1169.5678866729977,None,1169.5678866729977,None,1169.5678866729977,None,1169.674534742997,1170.1810154699997,1169.674534742997,1170.1810154699997,1169.674534742997,1170.1810154699997,None,None,down,1.972641203999956,1169.674534742997,None,None,None,x,0.2800427830006811,1171.6871203049996,None,1171.9936135489988,None,,15,10,10,,,,,110,23,2022_Sep_23_1156,templeton_exp2A_SD,2020.2.10,75.03143235427278,
,,,,,,,,,,,,,,,,,,,,,,120,0,120,0,,,,,,,,,,,,,,,,,,,,,,,,2.9000000000000004,1.6,2.9000000000000004,,,,,,,,,,,,,,,,,,,,,,,,,,,,,,,,,,,120,1180.039872286001,4,5,1,9,3,8,0,6,0,0,7,1193.5454316079995,None,4,5,1,9,3,8,0,6,,1197.0108104669998,None,1197.0108104669998,None,1197.0108104669998,None,1197.0108104669998,None,1197.0108104669998,None,1197.0108104669998,None,1197.0108104669998,None,1197.0108104669998,None,1195.718015937,1196.2244872949996,1195.718015937,1196.2244872949996,1195.718015937,1196.2244872949996,None,None,left,1.0924421780000557,1197.0108104669998,None,None,None,x,0.19150859699948342,1198.1437652549976,None,1198.3569645479984,None,,16,11,11,,,,,110,23,2022_Sep_23_1156,templeton_exp2A_SD,2020.2.10,75.03143235427278,
,,,,,,,,,,,,,,,,,,,,,,121,0,121,0,,,,,,,,,,,,,,,,,,,,,,,,2.7,2.8000000000000003,3.3000000000000003,,,,,,,,,,,,,,,,,,,,,,,,,,,,,,,,,,,121,1185.4292574129977,4,6,0,9,1,8,2,5,1,1,6,1198.9434721699981,None,4,6,0,9,1,8,3,5,,1202.2088921529976,None,1202.2088921529976,None,1202.2088921529976,None,1202.2088921529976,None,1202.2088921529976,None,1202.2088921529976,None,1202.2088921529976,None,1202.2088921529976,None,1202.3154971219992,1202.8219788539973,1202.3154971219992,1202.8219788539973,1202.3154971219992,1202.8219788539973,None,None,down,2.011807676000899,1202.3154971219992,None,None,None,c,0.29522602100041695,1204.3680103829975,None,1204.6878974669999,None,,17,11,11,,,,,110,23,2022_Sep_23_1156,templeton_exp2A_SD,2020.2.10,75.03143235427278,
,,,,,,,,,,,,,,,,,,,,,,122,0,122,0,,,,,,,,,,,,,,,,,,,,,,,,2.9000000000000004,1.6,2.9000000000000004,,,,,,,,,,,,,,,,,,,,,,,,,,,,,,,,,,,122,1191.7590717559979,3,5,2,9,1,8,4,6,0,1,5,1205.2743769939989,None,3,5,2,9,1,0,4,6,,1208.7396998359982,None,1208.7396998359982,None,1208.7396998359982,None,1208.7396998359982,None,1208.7396998359982,None,1208.7396998359982,None,1208.7396998359982,None,1208.7396998359982,None,1207.4469150779987,1207.9533301659976,1207.4469150779987,1207.9533301659976,1207.4469150779987,1207.9533301659976,None,None,down,1.2835607809975045,1208.7396998359982,None,None,None,z,0.5747002030002477,1210.0725805949987,None,1210.6722552049978,None,,18,12,12,,,,,110,23,2022_Sep_23_1156,templeton_exp2A_SD,2020.2.10,75.03143235427278,
,,,,,,,,,,,,,,,,,,,,,,123,0,123,0,,,,,,,,,,,,,,,,,,,,,,,,2.9000000000000004,1.6,2.9000000000000004,,,,,,,,,,,,,,,,,,,,,,,,,,,,,,,,,,,123,1197.7429423289977,1,7,2,9,4,8,3,5,0,1,1,1211.2454005339969,None,1,0,2,9,4,8,3,5,,1214.7107718389998,None,1214.7107718389998,None,1214.7107718389998,None,1214.7107718389998,None,1214.7107718389998,None,1214.7107718389998,None,1214.7107718389998,None,1214.7107718389998,None,1213.4046478620003,1213.9110860919973,1213.4046478620003,1213.9110860919973,1213.4046478620003,1213.9110860919973,None,None,left,2.4884972360014217,1214.7107718389998,None,None,None,x,0.2760692400006519,1217.2432170719985,None,1217.5363624489983,None,,19,12,13,,,,,110,23,2022_Sep_23_1156,templeton_exp2A_SD,2020.2.10,75.03143235427278,
,,,,,,,,,,,,,,,,,,,,,,124,0,124,0,,,,,,,,,,,,,,,,,,,,,,,,2.9,3.0,3.5,,,,,,,,,,,,,,,,,,,,,,,,,,,,,,,,,,,124,1204.6088001899989,4,5,2,9,0,6,1,8,1,0,0,1218.122851799999,None,4,5,2,9,0,6,1,8,,1221.588210482998,None,1221.588210482998,None,1221.588210482998,None,1221.588210482998,None,1221.588210482998,None,1221.588210482998,None,1221.588210482998,None,1221.588210482998,None,1221.694803929,1222.2012655159997,1221.694803929,1222.2012655159997,1221.694803929,1222.2012655159997,None,None,left,1.0644714729969564,1221.694803929,None,None,None,z,0.422207867999532,1222.801063584,None,1223.2408781839986,None,,20,12,13,,,,,110,23,2022_Sep_23_1156,templeton_exp2A_SD,2020.2.10,75.03143235427278,
,,,,,,,,,,,,,,,,,,,,,,125,0,125,0,,,,,,,,,,,,,,,,,,,,,,,,1.7,1.8,2.3,,,,,,,,,,,,,,,,,,,,,,,,,,,,,,,,,,,125,1210.315274176999,3,6,4,7,1,8,0,5,1,1,1,1223.8273872999998,None,3,2,4,7,1,8,0,5,,1226.093158784999,None,1226.093158784999,None,1226.093158784999,None,1226.093158784999,None,1226.093158784999,None,1226.093158784999,None,1226.093158784999,None,1226.093158784999,None,1226.1997493229974,1226.7062157439977,1226.1997493229974,1226.7062157439977,1226.1997493229974,1226.7062157439977,None,None,down,1.6075264920000336,1226.1997493229974,None,None,None,x,0.354791434998333,1227.8524917579998,None,1228.2256625310001,None,,21,12,13,,,,,110,23,2022_Sep_23_1156,templeton_exp2A_SD,2020.2.10,75.03143235427278,
,,,,,,,,,,,,,,,,,,,,,,126,0,126,0,,,,,,,,,,,,,,,,,,,,,,,,2.9000000000000004,1.6,2.9000000000000004,,,,,,,,,,,,,,,,,,,,,,,,,,,,,,,,,,,126,1215.2969495969992,0,5,3,6,2,8,1,9,0,0,2,1228.8121255589976,None,0,5,3,6,2,8,1,9,,1232.2774707930002,None,1232.2774707930002,None,1232.2774707930002,None,1232.2774707930002,None,1232.2774707930002,None,1232.2774707930002,None,1232.2774707930002,None,1232.2774707930002,None,1230.9846395709974,1231.4910731459968,1230.9846395709974,1231.4910731459968,1230.9846395709974,1231.4910731459968,None,None,left,0.5218110370005888,1232.2774707930002,None,None,None,z,0.1967075360007584,1232.8505306849984,None,1233.0638090819994,None,,22,13,14,,,,,110,23,2022_Sep_23_1156,templeton_exp2A_SD,2020.2.10,75.03143235427278,
,,,,,,,,,,,,,,,,,,,,,,127,0,127,0,,,,,,,,,,,,,,,,,,,,,,,,1.9,2.0,2.5,,,,,,,,,,,,,,,,,,,,,,,,,,,,,,,,,,,127,1220.1347110569986,1,5,4,7,3,8,2,9,1,1,7,1233.6502564329967,None,1,5,4,7,3,8,2,0,,1236.1159878779981,None,1236.1159878779981,None,1236.1159878779981,None,1236.1159878779981,None,1236.1159878779981,None,1236.1159878779981,None,1236.1159878779981,None,1236.1159878779981,None,1236.2226553589971,1236.7290389809968,1236.2226553589971,1236.7290389809968,1236.2226553589971,1236.7290389809968,None,None,left,1.552670400000352,1236.2226553589971,None,None,None,c,4.105131598000298,1237.8220500649986,None,1241.9404449529975,None,,23,13,14,,,,,110,23,2022_Sep_23_1156,templeton_exp2A_SD,2020.2.10,75.03143235427278,
,,,,,,,,,,,,,,,,,,,,,,128,0,128,0,,,,,,,,,,,,,,,,,,,,,,,,2.9000000000000004,1.6,2.9000000000000004,,,,,,,,,,,,,,,,,,,,,,,,,,,,,,,,,,,128,1229.011258519,4,9,2,7,0,5,3,8,0,1,7,1242.5135872089995,None,4,9,2,7,0,5,3,1,,1245.9788387349981,None,1245.9788387349981,None,1245.9788387349981,None,1245.9788387349981,None,1245.9788387349981,None,1245.9788387349981,None,1245.9788387349981,None,1245.9788387349981,None,1244.686125963999,1245.1926287959977,1244.686125963999,1245.1926287959977,1244.686125963999,1245.1926287959977,None,None,down,1.4764304450000054,1245.9788387349981,None,None,None,z,0.4369671879976522,1247.4983144529979,None,1247.951483372999,None,,24,14,15,,,,,110,23,2022_Sep_23_1156,templeton_exp2A_SD,2020.2.10,75.03143235427278,
,,,,,,,,,,,,,,,,,,,,,,129,0,129,0,,,,,,,,,,,,,,,,,,,,,,,,1.5,1.6,2.1,,,,,,,,,,,,,,,,,,,,,,,,,,,,,,,,,,,129,1235.0245325859978,2,7,4,8,1,6,3,9,1,1,4,1248.537982406,None,2,7,4,8,0,6,3,9,,1250.603885155997,None,1250.603885155997,None,1250.603885155997,None,1250.603885155997,None,1250.603885155997,None,1250.603885155997,None,1250.603885155997,None,1250.603885155997,None,1250.7104340709993,1251.2169391030002,1250.7104340709993,1251.2169391030002,1250.7104340709993,1251.2169391030002,None,None,down,1.6968323450018943,1250.7104340709993,None,None,None,z,0.3188791959983064,1252.4564044500003,None,1252.7896790449995,None,,25,14,15,,,,,110,23,2022_Sep_23_1156,templeton_exp2A_SD,2020.2.10,75.03143235427278,
,,,,,,,,,,,,,,,,,,,,,,130,0,130,0,,,,,,,,,,,,,,,,,,,,,,,,3.5,3.6,4.1,,,,,,,,,,,,,,,,,,,,,,,,,,,,,,,,,,,130,1239.862190967,4,7,3,8,2,5,1,6,1,0,7,1253.3761334189985,None,4,7,3,8,2,5,1,6,,1257.4546195900002,None,1257.4546195900002,None,1257.4546195900002,None,1257.4546195900002,None,1257.4546195900002,None,1257.4546195900002,None,1257.4546195900002,None,1257.4546195900002,None,1257.5479062879967,1258.054399378998,1257.5479062879967,1258.054399378998,1257.5479062879967,1258.054399378998,None,None,down,0.9472645579990058,1257.5479062879967,None,None,None,z,0.779793563997373,1258.5474890839978,None,1259.3471978519992,None,,26,14,15,,,,,110,23,2022_Sep_23_1156,templeton_exp2A_SD,2020.2.10,75.03143235427278,
