trials_2.thisRepN,trials_2.thisTrialN,trials_2.thisN,trials_2.thisIndex,Used_image_1,Used_image_2,Used_image_3,Used_image_4,Used_image_5,Used_image_6,Used_image_7,Used_image_8,Unused_image_1,Unused_image_2,trials.thisRepN,trials.thisTrialN,trials.thisN,trials.thisIndex,trials_4.thisRepN,trials_4.thisTrialN,trials_4.thisN,trials_4.thisIndex,trials_10.thisRepN,trials_10.thisTrialN,trials_10.thisN,trials_10.thisIndex,welcome.started,welcome.stopped,pointer_dot_0.started,pointer_dot_0.stopped,pointer_dot_1.started,pointer_dot_1.stopped,pointer_dot_2.started,pointer_dot_2.stopped,SD_image.started,SD_image.stopped,memDisplayOnTimePractice,mem_image_0_practice,mem_image_1_practice,mem_image_2_practice,mem_image_3_practice,mem_image_4_practice,mem_image_5_practice,mem_image_6_practice,mem_image_7_practice,retention_interval_practice,retro_0_post_1_practice,change_or_no_practice,cue_location_practice,mem_display_to_test_array_duration_s,mem_display_to_cue_duration_s,routine_duration_s,array_image_1f.started,array_image_1f.stopped,array_image_2f.started,array_image_2f.stopped,array_image_3f.started,array_image_3f.stopped,array_image_4f.started,array_image_4f.stopped,array_image_5f.started,array_image_5f.stopped,array_image_6f.started,array_image_6f.stopped,array_image_7f.started,array_image_7f.stopped,array_image_8f.started,array_image_8f.stopped,pointer_dot_0b.started,pointer_dot_0b.stopped,pointer_dot_1b.started,pointer_dot_1b.stopped,pointer_dot_2b.started,pointer_dot_2b.stopped,sd_practice_resp.keys,sd_practice_resp.rt,sd_practice_resp.started,sd_practice_resp.stopped,text_10.started,text_10.stopped,conf_practice_resp.keys,conf_practice_resp.rt,conf_practice_resp.started,conf_practice_resp.stopped,image.started,image.stopped,training_trial_index,memDisplayOnTimeTraining,mem_image_0_training,mem_image_1_training,mem_image_2_training,mem_image_3_training,mem_image_4_training,mem_image_5_training,mem_image_6_training,mem_image_7_training,retro_0_post_1_training,change_or_no_training,cue_location_training,array_image_1l.started,array_image_1l.stopped,test_image_0_training,test_image_1_training,test_image_2_training,test_image_3_training,test_image_4_training,test_image_5_training,test_image_6_training,test_image_7_training,consecutive_correct_retro_short,array_image_1m.started,array_image_1m.stopped,array_image_2m.started,array_image_2m.stopped,array_image_3m.started,array_image_3m.stopped,array_image_4m.started,array_image_4m.stopped,array_image_5m.started,array_image_5m.stopped,array_image_6m.started,array_image_6m.stopped,array_image_7m.started,array_image_7m.stopped,array_image_8m.started,array_image_8m.stopped,pointer_dot_0d.started,pointer_dot_0d.stopped,pointer_dot_1d.started,pointer_dot_1d.stopped,pointer_dot_2d.started,pointer_dot_2d.stopped,reminder_training.started,reminder_training.stopped,sd_training_resp.keys,sd_training_resp.rt,sd_training_resp.started,sd_training_resp.stopped,text_15.started,text_15.stopped,conf_training_resp.keys,conf_training_resp.rt,conf_training_resp.started,conf_training_resp.stopped,text.started,text.stopped,short_interval_training_finished,training_trial_index_long_this_block,correct_retro_long_this_block,retro_trials_long_this_block,long_interval_block_finished,long_block_retro_acc,reached_criterion,run_out_of_trials,participant,mapping,date,expName,psychopyVersion,frameRate,
,,,,,,,,,,,,,,0,0,0,0,,,,,,,,,17.712589982999816,None,668.2659061189997,None,668.2659061189997,None,668.2659061189997,None,707.4645688789997,None,753.89270192,3,6,4,9,0,5,2,7,1.6,1,1,2,1.5,1.6,2.1,773.6927727729999,None,773.6927727729999,None,773.6927727729999,None,773.6927727729999,None,773.6927727729999,None,773.6927727729999,None,773.6927727729999,None,773.6927727729999,None,773.7994412809994,774.3058598719999,773.7994412809994,774.3058598719999,773.7994412809994,774.3058598719999,left,2.959910196000237,773.7994412809994,None,776.8382404449994,None,z,6.817230028000267,776.8382404449994,None,776.8382404449994,None,,,,,,,,,,,,,,,,,,,,,,,,,,,,,,,,,,,,,,,,,,,,,,,,,,,,,,,,,,,,,,,,,,,,,109,32,2022_Sep_21_1336,templeton_exp2A_SD,2020.2.10,37.50657490254292,
,,,,,,,,,,,,,,1,0,1,0,,,,,,,,,,,,,,,,,,,770.0843066299994,2,7,1,6,0,9,4,5,1.6,0,1,4,2.9000000000000004,1.6,2.9000000000000004,791.2860730989996,None,791.2860730989996,None,791.2860730989996,None,791.2860730989996,None,791.2860730989996,None,791.2860730989996,None,791.2860730989996,None,791.2860730989996,None,790.0066062449996,790.5130250550001,790.0066062449996,790.5130250550001,790.0066062449996,790.5130250550001,left,2.8813503889996355,791.2860730989996,None,794.2316967749994,None,x,1.407764964999842,794.2316967749994,None,794.2316967749994,None,,,,,,,,,,,,,,,,,,,,,,,,,,,,,,,,,,,,,,,,,,,,,,,,,,,,,,,,,,,,,,,,,,,,,109,32,2022_Sep_21_1336,templeton_exp2A_SD,2020.2.10,37.50657490254292,
,,,,,,,,,,,,,,2,0,2,0,,,,,,,,,,,,,,,,,,,781.4521015109995,1,8,4,7,3,6,2,9,1.6,0,0,4,2.9000000000000004,1.6,2.9000000000000004,802.6550921979997,None,802.6550921979997,None,802.6550921979997,None,802.6550921979997,None,802.6550921979997,None,802.6550921979997,None,802.6550921979997,None,802.6550921979997,None,801.3756185129996,801.8821339850001,801.3756185129996,801.8821339850001,801.3756185129996,801.8821339850001,down,1.520255243000065,802.6550921979997,None,804.2278575569999,None,z,1.1155932679994294,804.2278575569999,None,804.2278575569999,None,,,,,,,,,,,,,,,,,,,,,,,,,,,,,,,,,,,,,,,,,,,,,,,,,,,,,,,,,,,,,,,,,,,,,109,32,2022_Sep_21_1336,templeton_exp2A_SD,2020.2.10,37.50657490254292,
,,,,,,,,,,,,,,3,0,3,0,,,,,,,,,,,,,,,,,,,791.0786471000001,1,5,4,7,0,8,2,9,1.6,1,1,4,1.5,1.6,2.1,810.8919691669998,None,810.8919691669998,None,810.8919691669998,None,810.8919691669998,None,810.8919691669998,None,810.8919691669998,None,810.8919691669998,None,810.8919691669998,None,810.9719351140002,811.4785591469999,810.9719351140002,811.4785591469999,810.9719351140002,811.4785591469999,down,2.251512650999757,810.9719351140002,None,813.2644794059997,None,x,0.9429701649996787,813.2644794059997,None,813.2644794059997,None,,,,,,,,,,,,,,,,,,,,,,,,,,,,,,,,,,,,,,,,,,,,,,,,,,,,,,,,,,,,,,,,,,,,,109,32,2022_Sep_21_1336,templeton_exp2A_SD,2020.2.10,37.50657490254292,
,,,,,,,,,,,,,,4,0,4,0,,,,,,,,,,,,,,,,,,,798.3394322100003,3,6,4,5,2,7,1,9,1.6,1,0,4,1.5,1.6,2.1,818.1559102860001,None,818.1559102860001,None,818.1559102860001,None,818.1559102860001,None,818.1559102860001,None,818.1559102860001,None,818.1559102860001,None,818.1559102860001,None,818.2625873809993,818.7690260139998,818.2625873809993,818.7690260139998,818.2625873809993,818.7690260139998,down,1.4808563810001942,818.2625873809993,None,819.7820064819998,None,z,0.7374561560000075,819.7820064819998,None,819.7820064819998,None,,,,,,,,,,,,,,,,,,,,,,,,,,,,,,,,,,,,,,,,,,,,,,,,,,,,,,,,,,,,,,,,,,,,,109,32,2022_Sep_21_1336,templeton_exp2A_SD,2020.2.10,37.50657490254292,
,,,,,,,,,,,,,,5,0,5,0,,,,,,,,,,,,,,,,,,,804.5625606859994,3,5,2,6,0,7,4,9,1.6,0,1,5,2.9000000000000004,1.6,2.9000000000000004,825.75308442,None,825.75308442,None,825.75308442,None,825.75308442,None,825.75308442,None,825.75308442,None,825.75308442,None,825.75308442,None,824.4469121920001,824.9532916459993,824.4469121920001,824.9532916459993,824.4469121920001,824.9532916459993,left,3.974260422000043,825.75308442,None,829.7781853449997,None,c,1.317282005999914,829.7781853449997,None,829.7781853449997,None,,,,,,,,,,,,,,,,,,,,,,,,,,,,,,,,,,,,,,,,,,,,,,,,,,,,,,,,,,,,,,,,,,,,,109,32,2022_Sep_21_1336,templeton_exp2A_SD,2020.2.10,37.50657490254292,
,,,,,,,,,,,,,,6,0,6,0,,,,,,,,,,,,,,,,,,,814.7457410500001,1,9,3,5,4,6,2,7,1.6,1,0,0,1.5,1.6,2.1,834.5497366789996,None,834.5497366789996,None,834.5497366789996,None,834.5497366789996,None,834.5497366789996,None,834.5497366789996,None,834.5497366789996,None,834.5497366789996,None,834.6562765190001,835.1628435109997,834.6562765190001,835.1628435109997,834.6562765190001,835.1628435109997,down,5.799171525999554,834.6562765190001,None,840.4939712320001,None,c,0.8254324710005676,840.4939712320001,None,840.4939712320001,None,,,,,,,,,,,,,,,,,,,,,,,,,,,,,,,,,,,,,,,,,,,,,,,,,,,,,,,,,,,,,,,,,,,,,109,32,2022_Sep_21_1336,templeton_exp2A_SD,2020.2.10,37.50657490254292,
,,,,,,,,,,,,,,,,,,,,,,0,0,0,0,,,,,,,,,,,,,,,,,,,,,,,,2.05,0.75,2.05,,,,,,,,,,,,,,,,,,,,,,,,,,,,,,,,,,,0,989.8524116669996,2,9,1,7,4,5,3,8,0,1,6,1007.6041276939995,None,2,9,1,7,4,5,0,8,0,1010.2165074750001,None,1010.2165074750001,None,1010.2165074750001,None,1010.2165074750001,None,1010.2165074750001,None,1010.2165074750001,None,1010.2165074750001,None,1010.2165074750001,None,1008.9103521179995,1009.4167457980002,1008.9103521179995,1009.4167457980002,1008.9103521179995,1009.4167457980002,None,None,down,1.43887905199972,1010.2165074750001,None,None,None,z,1.1968524060002892,1011.7226345620002,None,1012.9488303099997,None,,,,,,,,,109,32,2022_Sep_21_1336,templeton_exp2A_SD,2020.2.10,37.50657490254292,
,,,,,,,,,,,,,,,,,,,,,,1,0,1,0,,,,,,,,,,,,,,,,,,,,,,,,2.05,0.75,2.05,,,,,,,,,,,,,,,,,,,,,,,,,,,,,,,,,,,1,995.7892100099998,4,5,1,7,0,6,2,8,0,0,7,1013.5352868760001,None,4,5,1,7,0,6,2,8,0,1016.1209502499996,None,1016.1209502499996,None,1016.1209502499996,None,1016.1209502499996,None,1016.1209502499996,None,1016.1209502499996,None,1016.1209502499996,None,1016.1209502499996,None,1014.8414236299996,1015.3478466830002,1014.8414236299996,1015.3478466830002,1014.8414236299996,1015.3478466830002,None,None,left,1.3585573620002833,1016.1209502499996,None,None,None,x,0.6256406250004147,1017.533750308,None,1018.2001755370002,None,,,,,,,,,109,32,2022_Sep_21_1336,templeton_exp2A_SD,2020.2.10,37.50657490254292,
,,,,,,,,,,,,,,,,,,,,,,2,0,2,0,,,,,,,,,,,,,,,,,,,,,,,,2.05,0.75,2.05,,,,,,,,,,,,,,,,,,,,,,,,,,,,,,,,,,,2,1001.0399046900002,2,6,4,7,1,8,0,5,0,0,6,1018.7866398649994,None,2,6,4,7,1,8,0,5,0,1021.3989226879994,None,1021.3989226879994,None,1021.3989226879994,None,1021.3989226879994,None,1021.3989226879994,None,1021.3989226879994,None,1021.3989226879994,None,1021.3989226879994,None,1020.0927267500001,1020.5992576219996,1020.0927267500001,1020.5992576219996,1020.0927267500001,1020.5992576219996,None,None,left,1.2725725370000873,1021.3989226879994,None,None,None,z,0.7716899930001091,1022.7317754999995,None,1023.5313994009994,None,,,,,,,,,109,32,2022_Sep_21_1336,templeton_exp2A_SD,2020.2.10,37.50657490254292,
,,,,,,,,,,,,,,,,,,,,,,3,0,3,0,,,,,,,,,,,,,,,,,,,,,,,,0.65,0.75,1.25,,,,,,,,,,,,,,,,,,,,,,,,,,,,,,,,,,,3,1006.3724772750002,0,7,4,9,1,8,3,6,1,0,6,1024.1179196829999,None,0,7,4,9,1,8,3,6,0,1025.317480881,None,1025.317480881,None,1025.317480881,None,1025.317480881,None,1025.317480881,None,1025.317480881,None,1025.317480881,None,1025.317480881,None,1025.4240551479998,1025.9304903539996,1025.4240551479998,1025.9304903539996,1025.4240551479998,1025.9304903539996,None,None,left,1.7913928619991566,1025.4240551479998,None,None,None,z,0.22946021600000677,1027.2900021159994,None,1027.5566238399997,None,,,,,,,,,109,32,2022_Sep_21_1336,templeton_exp2A_SD,2020.2.10,37.50657490254292,
,,,,,,,,,,,,,,,,,,,,,,4,0,4,0,,,,,,,,,,,,,,,,,,,,,,,,0.65,0.75,1.25,,,,,,,,,,,,,,,,,,,,,,,,,,,,,,,,,,,4,1010.3944572800001,3,7,0,9,4,5,2,6,1,1,6,1028.1429810009995,None,3,7,0,9,4,5,1,6,0,1029.369221074,None,1029.369221074,None,1029.369221074,None,1029.369221074,None,1029.369221074,None,1029.369221074,None,1029.369221074,None,1029.369221074,None,1029.4758422280001,1029.98236687,1029.4758422280001,1029.98236687,1029.4758422280001,1029.98236687,None,None,left,3.019618311999693,1029.4758422280001,None,None,None,z,0.39142141999946034,1032.5680446709994,None,1032.9945583049994,None,,,,,,,,,109,32,2022_Sep_21_1336,templeton_exp2A_SD,2020.2.10,37.50657490254292,
,,,,,,,,,,,,,,,,,,,,,,5,0,5,0,,,,,,,,,,,,,,,,,,,,,,,,2.05,0.75,2.05,,,,,,,,,,,,,,,,,,,,,,,,,,,,,,,,,,,5,1015.830979241,2,8,0,5,4,7,3,9,0,0,4,1033.5676304009994,None,2,8,0,5,4,7,3,9,0,1036.166689316,None,1036.166689316,None,1036.166689316,None,1036.166689316,None,1036.166689316,None,1036.166689316,None,1036.166689316,None,1036.166689316,None,1034.8871324699994,1035.3936695969996,1034.8871324699994,1035.3936695969996,1034.8871324699994,1035.3936695969996,None,None,left,2.5447988830001123,1036.166689316,None,None,None,c,0.1083900090006864,1038.7790275669995,None,1038.938924039,None,,,,,,,,,109,32,2022_Sep_21_1336,templeton_exp2A_SD,2020.2.10,37.50657490254292,
,,,,,,,,,,,,,,,,,,,,,,6,0,6,0,,,,,,,,,,,,,,,,,,,,,,,,2.05,0.75,2.05,,,,,,,,,,,,,,,,,,,,,,,,,,,,,,,,,,,6,1021.7765933310002,1,9,4,5,0,7,3,8,0,1,2,1039.5254158449998,None,1,9,2,5,0,7,3,8,1,1042.124421038,None,1042.124421038,None,1042.124421038,None,1042.124421038,None,1042.124421038,None,1042.124421038,None,1042.124421038,None,1042.124421038,None,1040.844914106,1041.351392871,1040.844914106,1041.351392871,1040.844914106,1041.351392871,None,None,left,3.451053236000007,1042.124421038,None,None,None,x,0.30042987399974663,1045.6430959259997,None,1045.9895415359997,None,,,,,,,,,109,32,2022_Sep_21_1336,templeton_exp2A_SD,2020.2.10,37.50657490254292,
,,,,,,,,,,,,,,,,,,,,,,7,0,7,0,,,,,,,,,,,,,,,,,,,,,,,,2.05,0.75,2.05,,,,,,,,,,,,,,,,,,,,,,,,,,,,,,,,,,,7,1028.8280792369997,1,7,3,9,4,5,2,6,0,0,0,1046.5760776709994,None,1,7,3,9,4,5,2,6,2,1049.2017686259996,None,1049.2017686259996,None,1049.2017686259996,None,1049.2017686259996,None,1049.2017686259996,None,1049.2017686259996,None,1049.2017686259996,None,1049.2017686259996,None,1047.8955796169994,1048.401992477,1047.8955796169994,1048.401992477,1047.8955796169994,1048.401992477,None,None,down,1.7816779370004951,1049.2017686259996,None,None,None,z,0.4624268919997121,1051.041040432,None,1051.5475267049997,None,,,,,,,,,109,32,2022_Sep_21_1336,templeton_exp2A_SD,2020.2.10,37.50657490254292,
,,,,,,,,,,,,,,,,,,,,,,8,0,8,0,,,,,,,,,,,,,,,,,,,,,,,,0.65,0.75,1.25,,,,,,,,,,,,,,,,,,,,,,,,,,,,,,,,,,,8,1034.3846163509997,1,7,2,9,3,8,0,5,1,0,6,1052.1205655079993,None,1,7,2,9,3,8,0,5,2,1053.3334806069997,None,1053.3334806069997,None,1053.3334806069997,None,1053.3334806069997,None,1053.3334806069997,None,1053.3334806069997,None,1053.3334806069997,None,1053.3334806069997,None,1053.440106995,1053.9466219730002,1053.440106995,1053.9466219730002,1053.440106995,1053.9466219730002,None,None,down,2.6793574009998338,1053.440106995,None,None,None,z,0.2376691250001386,1056.1857945639995,None,1056.4522972469995,None,,,,,,,,,109,32,2022_Sep_21_1336,templeton_exp2A_SD,2020.2.10,37.50657490254292,
,,,,,,,,,,,,,,,,,,,,,,9,0,9,0,,,,,,,,,,,,,,,,,,,,,,,,0.65,0.75,1.25,,,,,,,,,,,,,,,,,,,,,,,,,,,,,,,,,,,9,1039.291544443,1,9,3,5,4,7,2,6,1,1,1,1057.0387414509996,None,1,0,3,5,4,7,2,6,2,1058.264930368,None,1058.264930368,None,1058.264930368,None,1058.264930368,None,1058.264930368,None,1058.264930368,None,1058.264930368,None,1058.264930368,None,1058.3448741299999,1058.8514317079998,1058.3448741299999,1058.8514317079998,1058.3448741299999,1058.8514317079998,None,None,down,2.9426325559998077,1058.3448741299999,None,None,None,x,0.17034477600009268,1061.357104478,None,1061.5703063209994,None,,,,,,,,,109,32,2022_Sep_21_1336,templeton_exp2A_SD,2020.2.10,37.50657490254292,
,,,,,,,,,,,,,,,,,,,,,,10,0,10,0,,,,,,,,,,,,,,,,,,,,,,,,0.65,0.75,1.25,,,,,,,,,,,,,,,,,,,,,,,,,,,,,,,,,,,10,1044.4086436010002,4,7,0,6,3,5,2,9,1,1,3,1062.1568052769999,None,4,7,0,1,3,5,2,9,2,1063.3696448459996,None,1063.3696448459996,None,1063.3696448459996,None,1063.3696448459996,None,1063.3696448459996,None,1063.3696448459996,None,1063.3696448459996,None,1063.3696448459996,None,1063.4762989720002,1063.9828174089998,1063.4762989720002,1063.9828174089998,1063.4762989720002,1063.9828174089998,None,None,down,2.2031615589994544,1063.4762989720002,None,None,None,x,0.20937618099924293,1065.7420889019995,None,1065.982048373,None,,,,,,,,,109,32,2022_Sep_21_1336,templeton_exp2A_SD,2020.2.10,37.50657490254292,
,,,,,,,,,,,,,,,,,,,,,,11,0,11,0,,,,,,,,,,,,,,,,,,,,,,,,0.65,0.75,1.25,,,,,,,,,,,,,,,,,,,,,,,,,,,,,,,,,,,11,1048.820663038,2,6,1,7,3,5,4,9,1,1,3,1066.5685100949995,None,2,6,1,0,3,5,4,9,2,1067.7813783419997,None,1067.7813783419997,None,1067.7813783419997,None,1067.7813783419997,None,1067.7813783419997,None,1067.7813783419997,None,1067.7813783419997,None,1067.7813783419997,None,1067.8879606889996,1068.394477035,1067.8879606889996,1068.394477035,1067.8879606889996,1068.394477035,None,None,down,1.4154461289999745,1067.8879606889996,None,None,None,x,0.2506960880000406,1069.3807692229993,None,1069.6739416760001,None,,,,,,,,,109,32,2022_Sep_21_1336,templeton_exp2A_SD,2020.2.10,37.50657490254292,
,,,,,,,,,,,,,,,,,,,,,,12,0,12,0,,,,,,,,,,,,,,,,,,,,,,,,2.05,0.75,2.05,,,,,,,,,,,,,,,,,,,,,,,,,,,,,,,,,,,12,1052.5102933569997,2,7,0,5,4,8,3,9,0,1,2,1070.2471044570002,None,2,7,1,5,4,8,3,9,0,1072.8461218379998,None,1072.8461218379998,None,1072.8461218379998,None,1072.8461218379998,None,1072.8461218379998,None,1072.8461218379998,None,1072.8461218379998,None,1072.8461218379998,None,1071.5665989789995,1072.0730312489995,1071.5665989789995,1072.0730312489995,1071.5665989789995,1072.0730312489995,1080.816432261,None,down,9.089280149999468,1072.8461218379998,None,None,None,x,0.36221404199932294,1081.9892517509998,None,1082.3890948859998,None,,,,,,,,,109,32,2022_Sep_21_1336,templeton_exp2A_SD,2020.2.10,37.50657490254292,
,,,,,,,,,,,,,,,,,,,,,,13,0,13,0,,,,,,,,,,,,,,,,,,,,,,,,0.65,0.75,1.25,,,,,,,,,,,,,,,,,,,,,,,,,,,,,,,,,,,13,1065.227216417,3,7,0,8,4,9,1,5,1,0,3,1082.975582211,None,3,7,0,8,4,9,1,5,0,1084.188454217,None,1084.188454217,None,1084.188454217,None,1084.188454217,None,1084.188454217,None,1084.188454217,None,1084.188454217,None,1084.188454217,None,1084.2951194959996,1084.8015439619994,1084.2951194959996,1084.8015439619994,1084.2951194959996,1084.8015439619994,None,None,down,1.1523304359998292,1084.2951194959996,None,None,None,z,0.6221466789993428,1085.5213179029997,None,1086.1876787789997,None,,,,,,,,,109,32,2022_Sep_21_1336,templeton_exp2A_SD,2020.2.10,37.50657490254292,
,,,,,,,,,,,,,,,,,,,,,,14,0,14,0,,,,,,,,,,,,,,,,,,,,,,,,0.65,0.75,1.25,,,,,,,,,,,,,,,,,,,,,,,,,,,,,,,,,,,14,1069.026897281,1,7,3,6,4,9,2,5,1,1,6,1086.7741731830001,None,1,7,3,6,4,9,0,5,0,1088.000305998,None,1088.000305998,None,1088.000305998,None,1088.000305998,None,1088.000305998,None,1088.000305998,None,1088.000305998,None,1088.000305998,None,1088.1069948929999,1088.6134848679994,1088.1069948929999,1088.6134848679994,1088.1069948929999,1088.6134848679994,None,None,down,1.3884583979997842,1088.1069948929999,None,None,None,z,0.21838146099980804,1089.5730716569997,None,1089.8395819789994,None,,,,,,,,,109,32,2022_Sep_21_1336,templeton_exp2A_SD,2020.2.10,37.50657490254292,
,,,,,,,,,,,,,,,,,,,,,,15,0,15,0,,,,,,,,,,,,,,,,,,,,,,,,0.65,0.75,1.25,,,,,,,,,,,,,,,,,,,,,,,,,,,,,,,,,,,15,1092.4417539639999,2,7,1,5,0,6,4,8,1,1,4,1110.1919260609993,None,2,7,1,5,3,6,4,8,0,1111.4181779909995,None,1111.4181779909995,None,1111.4181779909995,None,1111.4181779909995,None,1111.4181779909995,None,1111.4181779909995,None,1111.4181779909995,None,1111.4181779909995,None,1111.49809198,1112.0046400069996,1111.49809198,1112.0046400069996,1111.49809198,1112.0046400069996,None,None,down,2.6773566270003357,1111.49809198,None,None,None,z,0.31565632700039714,1114.2437616959996,None,1114.5902694279994,None,,,,,,,,,109,32,2022_Sep_21_1336,templeton_exp2A_SD,2020.2.10,37.50657490254292,
,,,,,,,,,,,,,,,,,,,,,,16,0,16,0,,,,,,,,,,,,,,,,,,,,,,,,2.05,0.75,2.05,,,,,,,,,,,,,,,,,,,,,,,,,,,,,,,,,,,16,1097.4294585239995,1,9,2,8,4,7,3,6,0,0,1,1115.176710021,None,1,9,2,8,4,7,3,6,1,1117.789058194,None,1117.789058194,None,1117.789058194,None,1117.789058194,None,1117.789058194,None,1117.789058194,None,1117.789058194,None,1117.789058194,None,1116.482921631,1116.9893215729999,1116.482921631,1116.9893215729999,1116.482921631,1116.9893215729999,None,None,down,1.2823807989998386,1117.789058194,None,None,None,z,0.16276363000088168,1119.148575583,None,1119.361791833,None,,,,,,,,,109,32,2022_Sep_21_1336,templeton_exp2A_SD,2020.2.10,37.50657490254292,
,,,,,,,,,,,,,,,,,,,,,,17,0,17,0,,,,,,,,,,,,,,,,,,,,,,,,0.65,0.75,1.25,,,,,,,,,,,,,,,,,,,,,,,,,,,,,,,,,,,17,1102.2012789640003,2,7,1,5,4,9,0,6,1,0,1,1119.948262899,None,2,7,1,5,4,9,0,6,1,1121.1744764159994,None,1121.1744764159994,None,1121.1744764159994,None,1121.1744764159994,None,1121.1744764159994,None,1121.1744764159994,None,1121.1744764159994,None,1121.1744764159994,None,1121.2543970079996,1121.7609111639995,1121.2543970079996,1121.7609111639995,1121.2543970079996,1121.7609111639995,None,None,down,1.1850534180002796,1121.2543970079996,None,None,None,z,0.14814948299954267,1122.507305127,None,1122.6938985219995,None,,,,,,,,,109,32,2022_Sep_21_1336,templeton_exp2A_SD,2020.2.10,37.50657490254292,
,,,,,,,,,,,,,,,,,,,,,,18,0,18,0,,,,,,,,,,,,,,,,,,,,,,,,0.65,0.75,1.25,,,,,,,,,,,,,,,,,,,,,,,,,,,,,,,,,,,18,1105.5306843460003,4,9,3,5,2,8,0,6,1,1,5,1123.2670062299994,None,4,9,3,5,2,1,0,6,1,1124.4798213819995,None,1124.4798213819995,None,1124.4798213819995,None,1124.4798213819995,None,1124.4798213819995,None,1124.4798213819995,None,1124.4798213819995,None,1124.4798213819995,None,1124.5864303999997,1125.0929808769997,1124.5864303999997,1125.0929808769997,1124.5864303999997,1125.0929808769997,None,None,down,1.3730266319998918,1124.5864303999997,None,None,None,z,0.12550015799934044,1126.025968373,None,1126.185870706,None,,,,,,,,,109,32,2022_Sep_21_1336,templeton_exp2A_SD,2020.2.10,37.50657490254292,
,,,,,,,,,,,,,,,,,,,,,,19,0,19,0,,,,,,,,,,,,,,,,,,,,,,,,0.65,0.75,1.25,,,,,,,,,,,,,,,,,,,,,,,,,,,,,,,,,,,19,1109.0246626339995,2,5,1,7,4,6,3,9,1,1,7,1126.7723096009995,None,2,5,1,7,4,6,3,0,1,1127.9985413839995,None,1127.9985413839995,None,1127.9985413839995,None,1127.9985413839995,None,1127.9985413839995,None,1127.9985413839995,None,1127.9985413839995,None,1127.9985413839995,None,1128.078529581,1128.5850026560001,1128.078529581,1128.5850026560001,1128.078529581,1128.5850026560001,None,None,down,0.7929298219996781,1128.078529581,None,None,None,z,0.19592595399990387,1128.9315416459995,None,1129.1713668579996,None,,,,,,,,,109,32,2022_Sep_21_1336,templeton_exp2A_SD,2020.2.10,37.50657490254292,
,,,,,,,,,,,,,,,,,,,,,,20,0,20,0,,,,,,,,,,,,,,,,,,,,,,,,0.65,0.75,1.25,,,,,,,,,,,,,,,,,,,,,,,,,,,,,,,,,,,20,1112.0103038119996,3,6,1,9,4,7,2,5,1,1,6,1129.7578880669998,None,3,6,1,9,4,7,0,5,1,1130.9840943099998,None,1130.9840943099998,None,1130.9840943099998,None,1130.9840943099998,None,1130.9840943099998,None,1130.9840943099998,None,1130.9840943099998,None,1130.9840943099998,None,1131.0906684269994,1131.5971822679994,1131.0906684269994,1131.5971822679994,1131.0906684269994,1131.5971822679994,None,None,down,0.6527999869995256,1131.0906684269994,None,None,None,z,0.1330136050000874,1131.8104430459998,None,1131.9702951129993,None,,,,,,,,,109,32,2022_Sep_21_1336,templeton_exp2A_SD,2020.2.10,37.50657490254292,
,,,,,,,,,,,,,,,,,,,,,,21,0,21,0,,,,,,,,,,,,,,,,,,,,,,,,0.65,0.75,1.25,,,,,,,,,,,,,,,,,,,,,,,,,,,,,,,,,,,21,1114.809801067,2,7,0,5,1,9,3,6,1,0,6,1132.556793322,None,2,7,0,5,1,9,3,6,1,1133.7830272829997,None,1133.7830272829997,None,1133.7830272829997,None,1133.7830272829997,None,1133.7830272829997,None,1133.7830272829997,None,1133.7830272829997,None,1133.7830272829997,None,1133.8629902969997,1134.3694748159996,1133.8629902969997,1134.3694748159996,1133.8629902969997,1134.3694748159996,None,None,down,0.9603649110003971,1133.8629902969997,None,None,None,z,0.1849176579999039,1134.9025710159995,None,1135.1158491819997,None,,,,,,,,,109,32,2022_Sep_21_1336,templeton_exp2A_SD,2020.2.10,37.50657490254292,
,,,,,,,,,,,,,,,,,,,,,,22,0,22,0,,,,,,,,,,,,,,,,,,,,,,,,0.65,0.75,1.25,,,,,,,,,,,,,,,,,,,,,,,,,,,,,,,,,,,22,1117.9559486939997,2,6,0,5,4,7,1,8,1,0,5,1135.7023684320002,None,2,6,0,5,4,7,1,8,1,1136.9284961799995,None,1136.9284961799995,None,1136.9284961799995,None,1136.9284961799995,None,1136.9284961799995,None,1136.9284961799995,None,1136.9284961799995,None,1136.9284961799995,None,1137.0350851029998,1137.541604694,1137.0350851029998,1137.541604694,1137.0350851029998,1137.541604694,None,None,left,1.7162845010007004,1137.0350851029998,None,None,None,z,0.18631209600061993,1138.8211449109995,None,1139.0343280219995,None,,,,,,,,,109,32,2022_Sep_21_1336,templeton_exp2A_SD,2020.2.10,37.50657490254292,
,,,,,,,,,,,,,,,,,,,,,,23,0,23,0,,,,,,,,,,,,,,,,,,,,,,,,0.65,0.75,1.25,,,,,,,,,,,,,,,,,,,,,,,,,,,,,,,,,,,23,1121.874580437,3,9,4,8,1,7,0,6,1,1,5,1139.6207399229997,None,3,9,4,8,1,2,0,6,1,1140.8337057519993,None,1140.8337057519993,None,1140.8337057519993,None,1140.8337057519993,None,1140.8337057519993,None,1140.8337057519993,None,1140.8337057519993,None,1140.8337057519993,None,1140.9402564679995,1141.4467967519995,1140.9402564679995,1141.4467967519995,1140.9402564679995,1141.4467967519995,None,None,left,1.0831911789991864,1140.9402564679995,None,None,None,z,0.16086384299978818,1142.0865637749994,None,1142.2997666319998,None,,,,,,,,,109,32,2022_Sep_21_1336,templeton_exp2A_SD,2020.2.10,37.50657490254292,
,,,,,,,,,,,,,,,,,,,,,,24,0,24,0,,,,,,,,,,,,,,,,,,,,,,,,0.65,0.75,1.25,,,,,,,,,,,,,,,,,,,,,,,,,,,,,,,,,,,24,1125.1397240959996,1,6,2,8,3,9,0,7,1,0,3,1142.8862144019995,None,1,6,2,8,3,9,0,7,1,1144.1124529609997,None,1144.1124529609997,None,1144.1124529609997,None,1144.1124529609997,None,1144.1124529609997,None,1144.1124529609997,None,1144.1124529609997,None,1144.1124529609997,None,1144.2191064489998,1144.725559904,1144.2191064489998,1144.725559904,1144.2191064489998,1144.725559904,None,None,down,0.7723380830002498,1144.2191064489998,None,None,None,z,0.4820269960000587,1145.0454280779995,None,1145.5785660989995,None,,,,,,,,,109,32,2022_Sep_21_1336,templeton_exp2A_SD,2020.2.10,37.50657490254292,
,,,,,,,,,,,,,,,,,,,,,,25,0,25,0,,,,,,,,,,,,,,,,,,,,,,,,0.65,0.75,1.25,,,,,,,,,,,,,,,,,,,,,,,,,,,,,,,,,,,25,1128.4162693669996,4,8,2,7,1,9,0,5,1,0,1,1146.1516263349995,None,4,8,2,7,1,9,0,5,1,1147.3645614819998,None,1147.3645614819998,None,1147.3645614819998,None,1147.3645614819998,None,1147.3645614819998,None,1147.3645614819998,None,1147.3645614819998,None,1147.3645614819998,None,1147.4712008759998,None,1147.4712008759998,None,1147.4712008759998,None,None,None,down,0.4722523469999942,1147.4712008759998,None,None,None,z,0.20313957899998059,1148.0042679869994,None,1148.2442097519997,None,,,,,,,,,109,32,2022_Sep_21_1336,templeton_exp2A_SD,2020.2.10,37.50657490254292,
,,,,,,,,,,,,,,,,,,,,,,26,0,26,0,,,,,,,,,,,,,,,,,,,,,,,,2.05,0.75,2.05,,,,,,,,,,,,,,,,,,,,,,,,,,,,,,,,,,,26,1131.0833816879995,3,8,2,6,4,9,1,7,0,0,7,1148.830654153,None,3,8,2,6,4,9,1,7,0,1151.442965751,None,1151.442965751,None,1151.442965751,None,1151.442965751,None,1151.442965751,None,1151.442965751,None,1151.442965751,None,1151.442965751,None,1150.1367658170002,1150.6432492209997,1150.1367658170002,1150.6432492209997,1150.1367658170002,1150.6432492209997,None,None,left,0.988478868999664,1151.442965751,None,None,None,z,0.19419366200054355,1152.5092726909998,None,1152.7491715770002,None,,,,,,,,,109,32,2022_Sep_21_1336,templeton_exp2A_SD,2020.2.10,37.50657490254292,
,,,,,,,,,,,,,,,,,,,,,,27,0,27,0,,,,,,,,,,,,,,,,,,,,,,,,0.65,0.75,1.25,,,,,,,,,,,,,,,,,,,,,,,,,,,,,,,,,,,27,1135.5885375569997,1,7,2,8,3,6,4,5,1,0,3,1153.3356552609994,None,1,7,2,8,3,6,4,5,0,1154.561822648,None,1154.561822648,None,1154.561822648,None,1154.561822648,None,1154.561822648,None,1154.561822648,None,1154.561822648,None,1154.561822648,None,1154.6417570599997,1155.1482788949997,1154.6417570599997,1155.1482788949997,1154.6417570599997,1155.1482788949997,None,None,down,0.8216898259997834,1154.6417570599997,None,None,None,z,0.22203671199986275,1155.5214163649998,None,1155.7880386400002,None,,,,,,,,,109,32,2022_Sep_21_1336,templeton_exp2A_SD,2020.2.10,37.50657490254292,
,,,,,,,,,,,,,,,,,,,,,,28,0,28,0,,,,,,,,,,,,,,,,,,,,,,,,0.65,0.75,1.25,,,,,,,,,,,,,,,,,,,,,,,,,,,,,,,,,,,28,1138.6261498229997,3,5,4,9,1,8,0,6,1,0,1,1156.3744384249994,None,3,5,4,9,1,8,0,6,0,1157.5872773289993,None,1157.5872773289993,None,1157.5872773289993,None,1157.5872773289993,None,1157.5872773289993,None,1157.5872773289993,None,1157.5872773289993,None,1157.5872773289993,None,1157.6939852609994,1158.200415493,1157.6939852609994,1158.200415493,1157.6939852609994,1158.200415493,None,None,down,0.5134613740001441,1157.6939852609994,None,None,None,z,0.17511397799989936,1158.2803025469993,None,1158.4936585199994,None,,,,,,,,,109,32,2022_Sep_21_1336,templeton_exp2A_SD,2020.2.10,37.50657490254292,
,,,,,,,,,,,,,,,,,,,,,,29,0,29,0,,,,,,,,,,,,,,,,,,,,,,,,2.05,0.75,2.05,,,,,,,,,,,,,,,,,,,,,,,,,,,,,,,,,,,29,1141.3319375680003,2,9,1,5,0,8,4,7,0,0,0,1159.0801207759996,None,2,9,1,5,0,8,4,7,0,1161.7057137370002,None,1161.7057137370002,None,1161.7057137370002,None,1161.7057137370002,None,1161.7057137370002,None,1161.7057137370002,None,1161.7057137370002,None,1161.7057137370002,None,1160.399618331,1160.9060295600002,1160.399618331,1160.9060295600002,1160.399618331,1160.9060295600002,None,None,left,0.8697276140001122,1161.7057137370002,None,None,None,z,0.15269364499999938,1162.6387222369995,None,1162.825310092,None,,,,,,,,,109,32,2022_Sep_21_1336,templeton_exp2A_SD,2020.2.10,37.50657490254292,
,,,,,,,,,,,,,,,,,,,,,,30,0,30,0,,,,,,,,,,,,,,,,,,,,,,,,0.65,0.75,1.25,,,,,,,,,,,,,,,,,,,,,,,,,,,,,,,,,,,30,1148.953810592,4,9,2,7,1,5,0,6,1,1,7,1166.7038318979994,None,4,9,2,7,1,5,0,3,0,1167.916770635,None,1167.916770635,None,1167.916770635,None,1167.916770635,None,1167.916770635,None,1167.916770635,None,1167.916770635,None,1167.916770635,None,1168.0233548649994,1168.5298127019996,1168.0233548649994,1168.5298127019996,1168.0233548649994,1168.5298127019996,None,None,left,0.9280946170001698,1168.0233548649994,None,None,None,z,0.18178026799978397,1169.0096755610002,None,1169.2229215910002,None,,,,,,,,,109,32,2022_Sep_21_1336,templeton_exp2A_SD,2020.2.10,37.50657490254292,
,,,,,,,,,,,,,,,,,,,,,,31,0,31,0,,,,,,,,,,,,,,,,,,,,,,,,2.05,0.75,2.05,,,,,,,,,,,,,,,,,,,,,,,,,,,,,,,,,,,31,1152.061884138,0,9,4,7,3,8,2,6,0,1,7,1169.8093315699998,None,0,9,4,7,3,8,2,1,1,1172.4350736759998,None,1172.4350736759998,None,1172.4350736759998,None,1172.4350736759998,None,1172.4350736759998,None,1172.4350736759998,None,1172.4350736759998,None,1172.4350736759998,None,1171.1287910749998,1171.6353520559996,1171.1287910749998,1171.6353520559996,1171.1287910749998,1171.6353520559996,None,None,left,0.8283709520001139,1172.4350736759998,None,None,None,z,0.13009207800041622,1173.341369752,None,1173.5013037889994,None,,,,,,,,,109,32,2022_Sep_21_1336,templeton_exp2A_SD,2020.2.10,37.50657490254292,
,,,,,,,,,,,,,,,,,,,,,,32,0,32,0,,,,,,,,,,,,,,,,,,,,,,,,2.05,0.75,2.05,,,,,,,,,,,,,,,,,,,,,,,,,,,,,,,,,,,32,1156.3405762309994,1,7,4,9,2,6,3,8,0,0,6,1174.0876805849994,None,1,7,4,9,2,6,3,8,2,1176.700029531,None,1176.700029531,None,1176.700029531,None,1176.700029531,None,1176.700029531,None,1176.700029531,None,1176.700029531,None,1176.700029531,None,1175.4205495770002,1175.927065506,1175.4205495770002,1175.927065506,1175.4205495770002,1175.927065506,None,None,down,1.2194235199995092,1176.700029531,None,None,None,z,0.15585939199991117,1177.9796051129997,None,1178.1662201259996,None,,,,,,,,,109,32,2022_Sep_21_1336,templeton_exp2A_SD,2020.2.10,37.50657490254292,
,,,,,,,,,,,,,,,,,,,,,,33,0,33,0,,,,,,,,,,,,,,,,,,,,,,,,0.65,0.75,1.25,,,,,,,,,,,,,,,,,,,,,,,,,,,,,,,,,,,33,1161.0051086129997,1,8,3,7,2,5,4,6,1,0,4,1178.7525790149994,None,1,8,3,7,2,5,4,6,2,1179.978855632,None,1179.978855632,None,1179.978855632,None,1179.978855632,None,1179.978855632,None,1179.978855632,None,1179.978855632,None,1179.978855632,None,1180.0588322009999,1180.565312058,1180.0588322009999,1180.565312058,1180.0588322009999,1180.565312058,None,None,down,1.9006283049993726,1180.0588322009999,None,None,None,z,0.152021662000152,1182.0314293309993,None,1182.2180134669998,None,,,,,,,,,109,32,2022_Sep_21_1336,templeton_exp2A_SD,2020.2.10,37.50657490254292,
,,,,,,,,,,,,,,,,,,,,,,34,0,34,0,,,,,,,,,,,,,,,,,,,,,,,,2.05,0.75,2.05,,,,,,,,,,,,,,,,,,,,,,,,,,,,,,,,,,,34,1165.056931747,3,8,0,9,2,6,4,7,0,0,2,1182.8044227109995,None,3,8,0,9,2,6,4,7,0,1185.4301257259995,None,1185.4301257259995,None,1185.4301257259995,None,1185.4301257259995,None,1185.4301257259995,None,1185.4301257259995,None,1185.4301257259995,None,1185.4301257259995,None,1184.1239089129995,1184.630434023,1184.1239089129995,1184.630434023,1184.1239089129995,1184.630434023,None,None,left,0.8973113550000562,1185.4301257259995,None,None,None,z,0.16166849599994748,1186.3897566329997,None,1186.6030301479996,None,,,,,,,,,109,32,2022_Sep_21_1336,templeton_exp2A_SD,2020.2.10,37.50657490254292,
,,,,,,,,,,,,,,,,,,,,,,35,0,35,0,,,,,,,,,,,,,,,,,,,,,,,,2.05,0.75,2.05,,,,,,,,,,,,,,,,,,,,,,,,,,,,,,,,,,,35,1169.44261913,4,6,0,9,1,5,2,7,0,1,0,1187.1894378919997,None,3,6,0,9,1,5,2,7,1,1189.8018078589994,None,1189.8018078589994,None,1189.8018078589994,None,1189.8018078589994,None,1189.8018078589994,None,1189.8018078589994,None,1189.8018078589994,None,1189.8018078589994,None,1188.4956356409994,1189.0020703339997,1188.4956356409994,1189.0020703339997,1188.4956356409994,1189.0020703339997,None,None,left,1.0376296249996813,1189.8018078589994,None,None,None,z,0.20075604599969665,1190.8947097869996,None,1191.1346271329994,None,,,,,,,,,109,32,2022_Sep_21_1336,templeton_exp2A_SD,2020.2.10,37.50657490254292,
,,,,,,,,,,,,,,,,,,,,,,36,0,36,0,,,,,,,,,,,,,,,,,,,,,,,,2.05,0.75,2.05,,,,,,,,,,,,,,,,,,,,,,,,,,,,,,,,,,,36,1173.9733545950003,2,6,3,7,4,8,0,9,0,1,4,1191.7210366559993,None,2,6,3,7,1,8,0,9,2,1194.3334319349997,None,1194.3334319349997,None,1194.3334319349997,None,1194.3334319349997,None,1194.3334319349997,None,1194.3334319349997,None,1194.3334319349997,None,1194.3334319349997,None,1193.0539077779995,1193.5603319470001,1193.0539077779995,1193.5603319470001,1193.0539077779995,1193.5603319470001,None,None,left,0.9700177310005529,1194.3334319349997,None,None,None,z,0.21054776399978437,1195.3729412169996,None,1195.612935393,None,,,,,,,,,109,32,2022_Sep_21_1336,templeton_exp2A_SD,2020.2.10,37.50657490254292,
,,,,,,,,,,,,,,,,,,,,,,37,0,37,0,,,,,,,,,,,,,,,,,,,,,,,,0.65,0.75,1.25,,,,,,,,,,,,,,,,,,,,,,,,,,,,,,,,,,,37,1178.4508638529996,3,9,0,8,1,5,4,7,1,0,5,1196.199384693,None,3,9,0,8,1,5,4,7,2,1197.4122509069994,None,1197.4122509069994,None,1197.4122509069994,None,1197.4122509069994,None,1197.4122509069994,None,1197.4122509069994,None,1197.4122509069994,None,1197.4122509069994,None,1197.5189028679997,1198.0253173499996,1197.5189028679997,1198.0253173499996,1197.5189028679997,1198.0253173499996,None,None,down,3.9366192199995567,1197.5189028679997,None,None,None,x,0.7940957779992459,1201.5173709479996,None,1202.3437199969994,None,,,,,,,,,109,32,2022_Sep_21_1336,templeton_exp2A_SD,2020.2.10,37.50657490254292,
,,,,,,,,,,,,,,,,,,,,,,38,0,38,0,,,,,,,,,,,,,,,,,,,,,,,,2.05,0.75,2.05,,,,,,,,,,,,,,,,,,,,,,,,,,,,,,,,,,,38,1185.1824987139998,3,5,1,9,2,6,4,7,0,1,6,1202.9301690559996,None,3,5,1,9,2,6,0,7,3,1205.542497112,None,1205.542497112,None,1205.542497112,None,1205.542497112,None,1205.542497112,None,1205.542497112,None,1205.542497112,None,1205.542497112,None,1204.2362781269994,1204.7427708939995,1204.2362781269994,1204.7427708939995,1204.2362781269994,1204.7427708939995,None,None,left,1.440919844999371,1205.542497112,None,None,None,x,0.5056315019992326,1207.0618897879995,None,1207.5950252379998,None,,,,,,,,,109,32,2022_Sep_21_1336,templeton_exp2A_SD,2020.2.10,37.50657490254292,
,,,,,,,,,,,,,,,,,,,,,,39,0,39,0,,,,,,,,,,,,,,,,,,,,,,,,0.65,0.75,1.25,,,,,,,,,,,,,,,,,,,,,,,,,,,,,,,,,,,39,1190.433361929,1,7,2,5,3,9,4,6,1,1,2,1208.1815114199999,None,1,7,0,5,3,9,4,6,3,1209.4076741499994,None,1209.4076741499994,None,1209.4076741499994,None,1209.4076741499994,None,1209.4076741499994,None,1209.4076741499994,None,1209.4076741499994,None,1209.4076741499994,None,1209.514324613,1210.0207706439996,1209.514324613,1210.0207706439996,1209.514324613,1210.0207706439996,None,None,down,1.5011349439992046,1209.514324613,None,None,None,z,0.5043289699997331,1211.08709602,None,1211.6201107529996,None,,,,,,,,,109,32,2022_Sep_21_1336,templeton_exp2A_SD,2020.2.10,37.50657490254292,
,,,,,,,,,,,,,,,,,,,,,,40,0,40,0,,,,,,,,,,,,,,,,,,,,,,,,2.05,0.75,2.05,,,,,,,,,,,,,,,,,,,,,,,,,,,,,,,,,,,40,1194.4575636789996,4,7,3,8,1,9,0,5,0,0,5,1212.2066105819995,None,4,7,3,8,1,9,0,5,0,1214.8322585119995,None,1214.8322585119995,None,1214.8322585119995,None,1214.8322585119995,None,1214.8322585119995,None,1214.8322585119995,None,1214.8322585119995,None,1214.8322585119995,None,1213.5260906069998,1214.0326154739996,1213.5260906069998,1214.0326154739996,1213.5260906069998,1214.0326154739996,None,None,left,1.767195024999637,1214.8322585119995,None,None,None,c,0.471910036000736,1216.6715582119996,None,1217.1780872399995,None,,,,,,,,,109,32,2022_Sep_21_1336,templeton_exp2A_SD,2020.2.10,37.50657490254292,
,,,,,,,,,,,,,,,,,,,,,,41,0,41,0,,,,,,,,,,,,,,,,,,,,,,,,2.05,0.75,2.05,,,,,,,,,,,,,,,,,,,,,,,,,,,,,,,,,,,41,1200.0185063489998,2,6,4,8,1,7,0,9,0,0,3,1217.764544361,None,2,6,4,8,1,7,0,9,1,1220.3768877209995,None,1220.3768877209995,None,1220.3768877209995,None,1220.3768877209995,None,1220.3768877209995,None,1220.3768877209995,None,1220.3768877209995,None,1220.3768877209995,None,1219.09735825,1219.603757983,1219.09735825,1219.603757983,1219.09735825,1219.603757983,None,None,down,2.3505524080001123,1220.3768877209995,None,None,None,z,0.21287834200029465,1222.8025703659996,None,1223.0425039189995,None,,,,,,,,,109,32,2022_Sep_21_1336,templeton_exp2A_SD,2020.2.10,37.50657490254292,
,,,,,,,,,,,,,,,,,,,,,,42,0,42,0,,,,,,,,,,,,,,,,,,,,,,,,0.65,0.75,1.25,,,,,,,,,,,,,,,,,,,,,,,,,,,,,,,,,,,42,1205.8820754970002,2,6,0,7,3,8,1,5,1,0,6,1223.6289922999995,None,2,6,0,7,3,8,1,5,1,1224.8551491549997,None,1224.8551491549997,None,1224.8551491549997,None,1224.8551491549997,None,1224.8551491549997,None,1224.8551491549997,None,1224.8551491549997,None,1224.8551491549997,None,1224.961818838,1225.468291532,1224.961818838,1225.468291532,1224.961818838,1225.468291532,None,None,down,2.6935360219995346,1224.961818838,None,None,None,z,0.33736929800033977,1227.7340964349996,None,1228.1072546159994,None,,,,,,,,,109,32,2022_Sep_21_1336,templeton_exp2A_SD,2020.2.10,37.50657490254292,
,,,,,,,,,,,,,,,,,,,,,,43,0,43,0,,,,,,,,,,,,,,,,,,,,,,,,2.05,0.75,2.05,,,,,,,,,,,,,,,,,,,,,,,,,,,,,,,,,,,43,1210.9464210309998,1,8,4,9,3,6,2,7,0,0,6,1228.6937283649995,None,1,8,4,9,3,6,2,7,2,1231.306013165,None,1231.306013165,None,1231.306013165,None,1231.306013165,None,1231.306013165,None,1231.306013165,None,1231.306013165,None,1231.306013165,None,1229.9998896139996,1230.5062715859995,1229.9998896139996,1230.5062715859995,1229.9998896139996,1230.5062715859995,None,None,down,3.733341748999919,1231.306013165,None,None,None,z,0.45748127799924987,1235.1179730220001,None,1235.6243481129995,None,,,,,,,,,109,32,2022_Sep_21_1336,templeton_exp2A_SD,2020.2.10,37.50657490254292,
,,,,,,,,,,,,,,,,,,,,,,44,0,44,0,,,,,,,,,,,,,,,,,,,,,,,,2.05,0.75,2.05,,,,,,,,,,,,,,,,,,,,,,,,,,,,,,,,,,,44,1218.4641785960002,3,6,1,9,2,8,0,7,0,1,3,1236.210875672,None,3,6,1,4,2,8,0,7,3,1238.8231882579994,None,1238.8231882579994,None,1238.8231882579994,None,1238.8231882579994,None,1238.8231882579994,None,1238.8231882579994,None,1238.8231882579994,None,1238.8231882579994,None,1237.5437085759995,1238.0501741689995,1237.5437085759995,1238.0501741689995,1237.5437085759995,1238.0501741689995,None,None,left,2.392282628999965,1238.8231882579994,None,None,None,z,0.2758419829997365,1241.2756216799999,None,1241.5954737000002,None,,,,,,,,,109,32,2022_Sep_21_1336,templeton_exp2A_SD,2020.2.10,37.50657490254292,
,,,,,,,,,,,,,,,,,,,,,,45,0,45,0,,,,,,,,,,,,,,,,,,,,,,,,0.65,0.75,1.25,,,,,,,,,,,,,,,,,,,,,,,,,,,,,,,,,,,45,1228.6017197599995,0,7,1,9,4,5,2,8,1,0,5,1246.340345957,None,0,7,1,9,4,5,2,8,3,1247.5531915639995,None,1247.5531915639995,None,1247.5531915639995,None,1247.5531915639995,None,1247.5531915639995,None,1247.5531915639995,None,1247.5531915639995,None,1247.5531915639995,None,1247.6598226340002,1248.1663584799999,1247.6598226340002,1248.1663584799999,1247.6598226340002,1248.1663584799999,None,None,down,1.275661071000286,1247.6598226340002,None,None,None,z,0.2547882999997455,1248.9926760489998,None,1249.2858571429997,None,,,,,,,,,109,32,2022_Sep_21_1336,templeton_exp2A_SD,2020.2.10,37.50657490254292,
,,,,,,,,,,,,,,,,,,,,,,46,0,46,0,,,,,,,,,,,,,,,,,,,,,,,,0.65,0.75,1.25,,,,,,,,,,,,,,,,,,,,,,,,,,,,,,,,,,,46,1232.1236822049996,4,6,3,5,1,9,2,8,1,1,7,1249.8590513230001,None,4,6,3,5,1,9,2,0,3,1251.0718738349997,None,1251.0718738349997,None,1251.0718738349997,None,1251.0718738349997,None,1251.0718738349997,None,1251.0718738349997,None,1251.0718738349997,None,1251.0718738349997,None,1251.178497846,1251.6850514399994,1251.178497846,1251.6850514399994,1251.178497846,1251.6850514399994,None,None,down,1.1009839419994023,1251.178497846,None,None,None,z,0.17594446200018865,1252.351487156,None,1252.5646899899994,None,,,,,,,,,109,32,2022_Sep_21_1336,templeton_exp2A_SD,2020.2.10,37.50657490254292,
,,,,,,,,,,,,,,,,,,,,,,47,0,47,0,,,,,,,,,,,,,,,,,,,,,,,,2.05,0.75,2.05,,,,,,,,,,,,,,,,,,,,,,,,,,,,,,,,,,,47,1235.4028847609998,0,5,1,8,2,9,4,6,0,1,2,1253.1511398129996,None,0,5,3,8,2,9,4,6,4,1255.7501569019996,None,1255.7501569019996,None,1255.7501569019996,None,1255.7501569019996,None,1255.7501569019996,None,1255.7501569019996,None,1255.7501569019996,None,1255.7501569019996,None,1254.4706052869997,1254.977106067,1254.4706052869997,1254.977106067,1254.4706052869997,1254.977106067,None,None,left,1.9851984279994213,1255.7501569019996,None,None,None,x,0.4127991759996803,1257.8026666529995,None,1258.255858857,None,,,,,,,,,109,32,2022_Sep_21_1336,templeton_exp2A_SD,2020.2.10,37.50657490254292,
,,,,,,,,,,,,,,,,,,,,,,48,0,48,0,,,,,,,,,,,,,,,,,,,,,,,,2.05,0.75,2.05,,,,,,,,,,,,,,,,,,,,,,,,,,,,,,,,,,,48,1241.1006178219995,3,8,4,9,2,5,1,7,0,1,0,1258.8422632249994,None,0,8,4,9,2,5,1,7,5,1261.4412736019995,None,1261.4412736019995,None,1261.4412736019995,None,1261.4412736019995,None,1261.4412736019995,None,1261.4412736019995,None,1261.4412736019995,None,1261.4412736019995,None,1260.1618133040001,1260.6682875629995,1260.1618133040001,1260.6682875629995,1260.1618133040001,1260.6682875629995,None,None,left,2.6221636569998736,1261.4412736019995,None,None,None,z,0.16176912500031904,1264.133641204,None,1264.3469014289994,None,,,,,,,,,109,32,2022_Sep_21_1336,templeton_exp2A_SD,2020.2.10,37.50657490254292,
,,,,,,,,,,,,,,,,,,,,,,49,0,49,0,,,,,,,,,,,,,,,,,,,,,,,,0.65,0.75,1.25,,,,,,,,,,,,,,,,,,,,,,,,,,,,,,,,,,,49,1247.1869045679996,0,7,3,9,2,8,1,6,1,0,0,1264.9333392520002,None,0,7,3,9,2,8,1,6,5,1266.159535717,None,1266.159535717,None,1266.159535717,None,1266.159535717,None,1266.159535717,None,1266.159535717,None,1266.159535717,None,1266.159535717,None,1266.2661538769999,1266.7724338919998,1266.2661538769999,1266.7724338919998,1266.2661538769999,1266.7724338919998,None,None,down,1.509258420000151,1266.2661538769999,None,None,None,z,0.18459023500054172,1267.8388643479993,None,1268.0521225769999,None,,,,,,,,,109,32,2022_Sep_21_1336,templeton_exp2A_SD,2020.2.10,37.50657490254292,
,,,,,,,,,,,,,,,,,,,,,,50,0,50,0,,,,,,,,,,,,,,,,,,,,,,,,0.65,0.75,1.25,,,,,,,,,,,,,,,,,,,,,,,,,,,,,,,,,,,50,1250.8900903510003,3,5,0,8,4,7,1,9,1,1,5,1268.6385573440002,None,3,5,0,8,4,2,1,9,5,1269.8514729729995,None,1269.8514729729995,None,1269.8514729729995,None,1269.8514729729995,None,1269.8514729729995,None,1269.8514729729995,None,1269.8514729729995,None,1269.8514729729995,None,1269.9312960019997,1270.4379418159997,1269.9312960019997,1270.4379418159997,1269.9312960019997,1270.4379418159997,None,None,down,2.8681673460005186,1269.9312960019997,None,None,None,z,0.12779089300056512,1272.863626288,None,1273.0235659869995,None,,,,,,,,,109,32,2022_Sep_21_1336,templeton_exp2A_SD,2020.2.10,37.50657490254292,
,,,,,,,,,,,,,,,,,,,,,,51,0,51,0,,,,,,,,,,,,,,,,,,,,,,,,0.65,0.75,1.25,,,,,,,,,,,,,,,,,,,,,,,,,,,,,,,,,,,51,1255.8626350100003,1,6,2,9,4,7,3,5,1,0,3,1273.610014633,None,1,6,2,9,4,7,3,5,5,1274.836215761,None,1274.836215761,None,1274.836215761,None,1274.836215761,None,1274.836215761,None,1274.836215761,None,1274.836215761,None,1274.836215761,None,1274.9162281319996,1275.4226437890002,1274.9162281319996,1275.4226437890002,1274.9162281319996,1275.4226437890002,None,None,down,1.2592211089995544,1274.9162281319996,None,None,None,z,0.1263639159997183,1276.2490544080001,None,1276.4089388020002,None,,,,,,,,,109,32,2022_Sep_21_1336,templeton_exp2A_SD,2020.2.10,37.50657490254292,
,,,,,,,,,,,,,,,,,,,,,,52,0,52,0,,,,,,,,,,,,,,,,,,,,,,,,0.65,0.75,1.25,,,,,,,,,,,,,,,,,,,,,,,,,,,,,,,,,,,52,1259.246874681,3,8,0,9,1,5,2,6,1,0,7,1276.9953952289998,None,3,8,0,9,1,5,2,6,5,1278.2083032089995,None,1278.2083032089995,None,1278.2083032089995,None,1278.2083032089995,None,1278.2083032089995,None,1278.2083032089995,None,1278.2083032089995,None,1278.2083032089995,None,1278.3148777549995,1278.8214340989998,1278.3148777549995,1278.8214340989998,1278.3148777549995,1278.8214340989998,None,None,down,1.4845793550002782,1278.3148777549995,None,None,None,z,0.13046445099917037,1279.8610008219994,None,1280.0208652949996,None,,,,,,,,,109,32,2022_Sep_21_1336,templeton_exp2A_SD,2020.2.10,37.50657490254292,
,,,,,,,,,,,,,,,,,,,,,,53,0,53,0,,,,,,,,,,,,,,,,,,,,,,,,2.05,0.75,2.05,,,,,,,,,,,,,,,,,,,,,,,,,,,,,,,,,,,53,1262.859509629,3,7,0,5,4,6,2,9,0,1,2,1280.6073617060001,None,3,7,1,5,4,6,2,9,0,1283.2196567459996,None,1283.2196567459996,None,1283.2196567459996,None,1283.2196567459996,None,1283.2196567459996,None,1283.2196567459996,None,1283.2196567459996,None,1283.2196567459996,None,1281.9135156880002,1282.4200722699998,1281.9135156880002,1282.4200722699998,1281.9135156880002,1282.4200722699998,None,None,down,1.275790374999815,1283.2196567459996,None,None,None,z,0.19086011300078098,1284.5525652340002,None,1284.7923847410002,None,,,,,,,,,109,32,2022_Sep_21_1336,templeton_exp2A_SD,2020.2.10,37.50657490254292,
,,,,,,,,,,,,,,,,,,,,,,54,0,54,0,,,,,,,,,,,,,,,,,,,,,,,,0.65,0.75,1.25,,,,,,,,,,,,,,,,,,,,,,,,,,,,,,,,,,,54,1267.630386709,0,6,1,8,4,5,3,9,1,1,2,1285.3789241069999,None,0,6,2,8,4,5,3,9,0,1286.5917059819994,None,1286.5917059819994,None,1286.5917059819994,None,1286.5917059819994,None,1286.5917059819994,None,1286.5917059819994,None,1286.5917059819994,None,1286.5917059819994,None,1286.6984211609997,1287.2048570689994,1286.6984211609997,1287.2048570689994,1286.6984211609997,1287.2048570689994,None,None,down,1.0049888240000655,1286.6984211609997,None,None,None,z,0.1867097289996309,1287.764687682,None,1288.0045924299993,None,,,,,,,,,109,32,2022_Sep_21_1336,templeton_exp2A_SD,2020.2.10,37.50657490254292,
,,,,,,,,,,,,,,,,,,,,,,55,0,55,0,,,,,,,,,,,,,,,,,,,,,,,,2.05,0.75,2.05,,,,,,,,,,,,,,,,,,,,,,,,,,,,,,,,,,,55,1270.8438003789997,3,8,1,5,2,6,4,7,0,1,5,1288.5910274030002,None,3,8,1,5,2,0,4,7,0,1291.190018882,None,1291.190018882,None,1291.190018882,None,1291.190018882,None,1291.190018882,None,1291.190018882,None,1291.190018882,None,1291.190018882,None,1289.910480308,1290.4170119740002,1289.910480308,1290.4170119740002,1289.910480308,1290.4170119740002,None,None,down,1.0493849169997702,1291.190018882,None,None,None,z,0.31382369699986157,1292.3096313079996,None,1292.6561263229996,None,,,,,,,,,109,32,2022_Sep_21_1336,templeton_exp2A_SD,2020.2.10,37.50657490254292,
,,,,,,,,,,,,,,,,,,,,,,56,0,56,0,,,,,,,,,,,,,,,,,,,,,,,,2.05,0.75,2.05,,,,,,,,,,,,,,,,,,,,,,,,,,,,,,,,,,,56,1275.4959633729995,2,5,0,9,1,6,4,7,0,1,6,1293.2425317299994,None,2,5,0,9,1,6,3,7,0,1295.8549211230002,None,1295.8549211230002,None,1295.8549211230002,None,1295.8549211230002,None,1295.8549211230002,None,1295.8549211230002,None,1295.8549211230002,None,1295.8549211230002,None,1294.5487699249998,1295.0552777659996,1294.5487699249998,1295.0552777659996,1294.5487699249998,1295.0552777659996,None,None,down,0.9204843520001305,1295.8549211230002,None,None,None,z,0.27021939199948974,1296.8412342399997,None,1297.161087593,None,,,,,,,,,109,32,2022_Sep_21_1336,templeton_exp2A_SD,2020.2.10,37.50657490254292,
,,,,,,,,,,,,,,,,,,,,,,57,0,57,0,,,,,,,,,,,,,,,,,,,,,,,,2.05,0.75,2.05,,,,,,,,,,,,,,,,,,,,,,,,,,,,,,,,,,,57,1279.999073895,1,8,4,5,0,6,3,9,0,0,6,1297.7475178249997,None,1,8,4,5,0,6,3,9,1,1300.373203622,None,1300.373203622,None,1300.373203622,None,1300.373203622,None,1300.373203622,None,1300.373203622,None,1300.373203622,None,1300.373203622,None,1299.0670213829999,1299.5734935089995,1299.0670213829999,1299.5734935089995,1299.0670213829999,1299.5734935089995,None,None,down,0.8342344859993318,1300.373203622,None,None,None,z,0.36788586800048506,1301.279579268,None,1301.679417466,None,,,,,,,,,109,32,2022_Sep_21_1336,templeton_exp2A_SD,2020.2.10,37.50657490254292,
,,,,,,,,,,,,,,,,,,,,,,58,0,58,0,,,,,,,,,,,,,,,,,,,,,,,,2.05,0.75,2.05,,,,,,,,,,,,,,,,,,,,,,,,,,,,,,,,,,,58,1284.519527558,2,7,4,8,0,6,1,5,0,1,4,1302.2658532569994,None,2,7,4,8,3,6,1,5,2,1304.878190933,None,1304.878190933,None,1304.878190933,None,1304.878190933,None,1304.878190933,None,1304.878190933,None,1304.878190933,None,1304.878190933,None,1303.5719722949998,1304.078506074,1303.5719722949998,1304.078506074,1303.5719722949998,1304.078506074,None,None,left,0.9772303769996142,1304.878190933,None,None,None,z,0.20964788399942336,1305.9178039159997,None,1306.157678898,None,,,,,,,,,109,32,2022_Sep_21_1336,templeton_exp2A_SD,2020.2.10,37.50657490254292,
,,,,,,,,,,,,,,,,,,,,,,59,0,59,0,,,,,,,,,,,,,,,,,,,,,,,,0.65,0.75,1.25,,,,,,,,,,,,,,,,,,,,,,,,,,,,,,,,,,,59,1288.9957722179997,4,5,0,9,3,8,1,6,1,0,4,1306.744164099,None,4,5,0,9,3,8,1,6,2,1307.9569838589996,None,1307.9569838589996,None,1307.9569838589996,None,1307.9569838589996,None,1307.9569838589996,None,1307.9569838589996,None,1307.9569838589996,None,1307.9569838589996,None,1308.063665402,1308.5700675339995,1308.063665402,1308.5700675339995,1308.063665402,1308.5700675339995,None,None,down,1.1917986790003852,1308.063665402,None,None,None,z,0.24294480600019597,1309.3165086519994,None,1309.609702627,None,,,,,,,,,109,32,2022_Sep_21_1336,templeton_exp2A_SD,2020.2.10,37.50657490254292,
,,,,,,,,,,,,,,,,,,,,,,60,0,60,0,,,,,,,,,,,,,,,,,,,,,,,,0.65,0.75,1.25,,,,,,,,,,,,,,,,,,,,,,,,,,,,,,,,,,,60,1295.63077514,1,6,0,5,2,7,3,9,1,1,1,1313.3816513759994,None,1,4,0,5,2,7,3,9,2,1314.5945223939998,None,1314.5945223939998,None,1314.5945223939998,None,1314.5945223939998,None,1314.5945223939998,None,1314.5945223939998,None,1314.5945223939998,None,1314.5945223939998,None,1314.7011512479994,1315.2075836249996,1314.7011512479994,1315.2075836249996,1314.7011512479994,1315.2075836249996,None,None,down,0.9622575379999034,1314.7011512479994,None,None,None,z,0.17872361199988518,1315.7407422400001,None,1315.9539599419995,None,,,,,,,,,109,32,2022_Sep_21_1336,templeton_exp2A_SD,2020.2.10,37.50657490254292,
,,,,,,,,,,,,,,,,,,,,,,61,0,61,0,,,,,,,,,,,,,,,,,,,,,,,,2.05,0.75,2.05,,,,,,,,,,,,,,,,,,,,,,,,,,,,,,,,,,,61,1298.7925405139995,3,5,1,6,4,9,0,8,0,0,5,1316.540405627,None,3,5,1,6,4,9,0,8,3,1319.1661204359998,None,1319.1661204359998,None,1319.1661204359998,None,1319.1661204359998,None,1319.1661204359998,None,1319.1661204359998,None,1319.1661204359998,None,1319.1661204359998,None,1317.8599141519999,1318.3664199589994,1317.8599141519999,1318.3664199589994,1317.8599141519999,1318.3664199589994,None,None,down,2.897331562000545,1319.1661204359998,None,None,None,z,0.1704685739996421,1322.1249979509994,None,1322.3382121389996,None,,,,,,,,,109,32,2022_Sep_21_1336,templeton_exp2A_SD,2020.2.10,37.50657490254292,
,,,,,,,,,,,,,,,,,,,,,,62,0,62,0,,,,,,,,,,,,,,,,,,,,,,,,0.65,0.75,1.25,,,,,,,,,,,,,,,,,,,,,,,,,,,,,,,,,,,62,1305.1774649809995,4,7,2,6,3,5,1,8,1,1,5,1322.924638861,None,4,7,2,6,3,0,1,8,3,1324.1509014120002,None,1324.1509014120002,None,1324.1509014120002,None,1324.1509014120002,None,1324.1509014120002,None,1324.1509014120002,None,1324.1509014120002,None,1324.1509014120002,None,1324.257486136,1324.7639506529995,1324.257486136,1324.7639506529995,1324.257486136,1324.7639506529995,None,None,left,0.8379579639995427,1324.257486136,None,None,None,z,0.2116156679994674,1325.1638513339994,None,1325.4036592379998,None,,,,,,,,,109,32,2022_Sep_21_1336,templeton_exp2A_SD,2020.2.10,37.50657490254292,
,,,,,,,,,,,,,,,,,,,,,,63,0,63,0,,,,,,,,,,,,,,,,,,,,,,,,2.05,0.75,2.05,,,,,,,,,,,,,,,,,,,,,,,,,,,,,,,,,,,63,1308.2426090459994,4,9,3,6,1,5,2,7,0,1,4,1325.9901668960001,None,4,9,3,6,0,5,2,7,0,1328.615811445,None,1328.615811445,None,1328.615811445,None,1328.615811445,None,1328.615811445,None,1328.615811445,None,1328.615811445,None,1328.615811445,None,1327.3097068609995,1327.8161848620002,1327.3097068609995,1327.8161848620002,1327.3097068609995,1327.8161848620002,None,None,down,3.2156429970000318,1328.615811445,None,None,None,c,0.07284782199985784,1331.8946196749994,None,1332.0012006030001,None,,,,,,,,,109,32,2022_Sep_21_1336,templeton_exp2A_SD,2020.2.10,37.50657490254292,
,,,,,,,,,,,,,,,,,,,,,,64,0,64,0,,,,,,,,,,,,,,,,,,,,,,,,2.05,0.75,2.05,,,,,,,,,,,,,,,,,,,,,,,,,,,,,,,,,,,64,1314.8417351899998,0,6,3,8,1,7,2,9,0,1,7,1332.5877021429997,None,0,6,3,8,1,7,2,4,1,1335.2000480299994,None,1335.2000480299994,None,1335.2000480299994,None,1335.2000480299994,None,1335.2000480299994,None,1335.2000480299994,None,1335.2000480299994,None,1335.2000480299994,None,1333.9204570679995,1334.4269243199997,1333.9204570679995,1334.4269243199997,1333.9204570679995,1334.4269243199997,None,None,left,1.6154021700003796,1335.2000480299994,None,None,None,z,0.1520622309999453,1336.879402828,None,1337.066002167,None,,,,,,,,,109,32,2022_Sep_21_1336,templeton_exp2A_SD,2020.2.10,37.50657490254292,
,,,,,,,,,,,,,,,,,,,,,,65,0,65,0,,,,,,,,,,,,,,,,,,,,,,,,0.65,0.75,1.25,,,,,,,,,,,,,,,,,,,,,,,,,,,,,,,,,,,65,1319.903917652,0,9,3,6,2,5,1,8,1,0,4,1337.6524686129997,None,0,9,3,6,2,5,1,8,1,1338.8653222229996,None,1338.8653222229996,None,1338.8653222229996,None,1338.8653222229996,None,1338.8653222229996,None,1338.8653222229996,None,1338.8653222229996,None,1338.8653222229996,None,1338.9719133789995,1339.478413451,1338.9719133789995,1339.478413451,1338.9719133789995,1339.478413451,None,None,down,1.2834945120002885,1338.9719133789995,None,None,None,z,0.18006821400012996,1340.3313833129996,None,1340.5446856479994,None,,,,,,,,,109,32,2022_Sep_21_1336,templeton_exp2A_SD,2020.2.10,37.50657490254292,
,,,,,,,,,,,,,,,,,,,,,,66,0,66,0,,,,,,,,,,,,,,,,,,,,,,,,0.65,0.75,1.25,,,,,,,,,,,,,,,,,,,,,,,,,,,,,,,,,,,66,1323.3815188239996,1,9,3,7,2,8,4,5,1,1,3,1341.1177942859995,None,1,9,3,0,2,8,4,5,1,1342.330681859,None,1342.330681859,None,1342.330681859,None,1342.330681859,None,1342.330681859,None,1342.330681859,None,1342.330681859,None,1342.330681859,None,1342.4106420379994,1342.917125047,1342.4106420379994,1342.917125047,1342.4106420379994,1342.917125047,None,None,left,1.0048164189993258,1342.4106420379994,None,None,None,z,0.19456762300069386,1343.476906123,None,1343.716784196,None,,,,,,,,,109,32,2022_Sep_21_1336,templeton_exp2A_SD,2020.2.10,37.50657490254292,
,,,,,,,,,,,,,,,,,,,,,,67,0,67,0,,,,,,,,,,,,,,,,,,,,,,,,2.05,0.75,2.05,,,,,,,,,,,,,,,,,,,,,,,,,,,,,,,,,,,67,1326.5563624659999,3,5,0,9,1,7,2,6,0,1,2,1344.3032503469994,None,3,5,4,9,1,7,2,6,0,1346.915610471,None,1346.915610471,None,1346.915610471,None,1346.915610471,None,1346.915610471,None,1346.915610471,None,1346.915610471,None,1346.915610471,None,1345.6094346769996,1346.1158301209998,1345.6094346769996,1346.1158301209998,1345.6094346769996,1346.1158301209998,None,None,down,3.5638674680003533,1346.915610471,None,None,None,z,1.0665104509998855,1350.54085047,None,1351.660474843,None,,,,,,,,,109,32,2022_Sep_21_1336,templeton_exp2A_SD,2020.2.10,37.50657490254292,
,,,,,,,,,,,,,,,,,,,,,,68,0,68,0,,,,,,,,,,,,,,,,,,,,,,,,0.65,0.75,1.25,,,,,,,,,,,,,,,,,,,,,,,,,,,,,,,,,,,68,1334.500031214,1,9,0,6,2,5,4,7,1,0,6,1352.2468711909996,None,1,9,0,6,2,5,4,7,0,1353.4730860769996,None,1353.4730860769996,None,1353.4730860769996,None,1353.4730860769996,None,1353.4730860769996,None,1353.4730860769996,None,1353.4730860769996,None,1353.4730860769996,None,1353.5797084859996,1354.0862497669996,1353.5797084859996,1354.0862497669996,1353.5797084859996,1354.0862497669996,None,None,down,1.0757517029996961,1353.5797084859996,None,None,None,z,0.15348098699996626,1354.7259836060002,None,1354.9125779770002,None,,,,,,,,,109,32,2022_Sep_21_1336,templeton_exp2A_SD,2020.2.10,37.50657490254292,
,,,,,,,,,,,,,,,,,,,,,,69,0,69,0,,,,,,,,,,,,,,,,,,,,,,,,2.05,0.75,2.05,,,,,,,,,,,,,,,,,,,,,,,,,,,,,,,,,,,69,1337.7514744989994,0,7,2,5,3,6,4,8,0,1,1,1355.4989346779994,None,0,1,2,5,3,6,4,8,1,1358.1246918549996,None,1358.1246918549996,None,1358.1246918549996,None,1358.1246918549996,None,1358.1246918549996,None,1358.1246918549996,None,1358.1246918549996,None,1358.1246918549996,None,1356.8184881769994,1357.3249837919993,1356.8184881769994,1357.3249837919993,1356.8184881769994,1357.3249837919993,None,None,left,1.0587588819998928,1358.1246918549996,None,None,None,z,0.24319156700039457,1359.244261719,None,1359.537436685,None,,,,,,,,,109,32,2022_Sep_21_1336,templeton_exp2A_SD,2020.2.10,37.50657490254292,
,,,,,,,,,,,,,,,,,,,,,,70,0,70,0,,,,,,,,,,,,,,,,,,,,,,,,2.05,0.75,2.05,,,,,,,,,,,,,,,,,,,,,,,,,,,,,,,,,,,70,1342.374907036,1,7,0,8,3,5,2,9,0,1,3,1360.1238853529994,None,1,7,0,4,3,5,2,9,2,1362.7227480479996,None,1362.7227480479996,None,1362.7227480479996,None,1362.7227480479996,None,1362.7227480479996,None,1362.7227480479996,None,1362.7227480479996,None,1362.7227480479996,None,1361.4433961429995,1361.949912385,1361.4433961429995,1361.949912385,1361.4433961429995,1361.949912385,None,None,left,2.5006576450005014,1362.7227480479996,None,None,None,z,0.22153451499980292,1365.2819842359995,None,1365.5485497629998,None,,,,,,,,,109,32,2022_Sep_21_1336,templeton_exp2A_SD,2020.2.10,37.50657490254292,
,,,,,,,,,,,,,,,,,,,,,,71,0,71,0,,,,,,,,,,,,,,,,,,,,,,,,0.65,0.75,1.25,,,,,,,,,,,,,,,,,,,,,,,,,,,,,,,,,,,71,1348.3864050840002,2,6,3,9,0,8,1,5,1,1,3,1366.1349955449996,None,2,6,3,4,0,8,1,5,2,1367.3478659419998,None,1367.3478659419998,None,1367.3478659419998,None,1367.3478659419998,None,1367.3478659419998,None,1367.3478659419998,None,1367.3478659419998,None,1367.3478659419998,None,1367.4544469539996,1367.9609527829998,1367.4544469539996,1367.9609527829998,1367.4544469539996,1367.9609527829998,None,None,down,1.3850035039995419,1367.4544469539996,None,None,None,z,0.1775307280004199,1368.89393484,None,1369.1071853029998,None,,,,,,,,,109,32,2022_Sep_21_1336,templeton_exp2A_SD,2020.2.10,37.50657490254292,
,,,,,,,,,,,,,,,,,,,,,,72,0,72,0,,,,,,,,,,,,,,,,,,,,,,,,0.65,0.75,1.25,,,,,,,,,,,,,,,,,,,,,,,,,,,,,,,,,,,72,1351.9474875329997,0,9,4,6,1,8,3,7,1,0,5,1369.6935923709998,None,0,9,4,6,1,8,3,7,2,1370.8931533690002,None,1370.8931533690002,None,1370.8931533690002,None,1370.8931533690002,None,1370.8931533690002,None,1370.8931533690002,None,1370.8931533690002,None,1370.8931533690002,None,1370.9997412759994,1371.5062078539995,1370.9997412759994,1371.5062078539995,1370.9997412759994,1371.5062078539995,None,None,down,1.327705946999231,1370.9997412759994,None,None,None,z,0.10959740300040721,1372.3858549810002,None,1372.5458562959993,None,,,,,,,,,109,32,2022_Sep_21_1336,templeton_exp2A_SD,2020.2.10,37.50657490254292,
,,,,,,,,,,,,,,,,,,,,,,73,0,73,0,,,,,,,,,,,,,,,,,,,,,,,,2.05,0.75,2.05,,,,,,,,,,,,,,,,,,,,,,,,,,,,,,,,,,,73,1355.3831552840002,2,9,4,8,3,5,1,6,0,1,1,1373.1189271849998,None,2,0,4,8,3,5,1,6,3,1375.7445794139994,None,1375.7445794139994,None,1375.7445794139994,None,1375.7445794139994,None,1375.7445794139994,None,1375.7445794139994,None,1375.7445794139994,None,1375.7445794139994,None,1374.4384545879993,1374.9449881279997,1374.4384545879993,1374.9449881279997,1374.4384545879993,1374.9449881279997,None,None,left,1.1028547120004077,1375.7445794139994,None,None,None,z,0.20990511699983472,1376.917558819,None,1377.157443225,None,,,,,,,,,109,32,2022_Sep_21_1336,templeton_exp2A_SD,2020.2.10,37.50657490254292,
,,,,,,,,,,,,,,,,,,,,,,74,0,74,0,,,,,,,,,,,,,,,,,,,,,,,,0.65,0.75,1.25,,,,,,,,,,,,,,,,,,,,,,,,,,,,,,,,,,,74,1359.996549032,1,7,4,5,2,8,3,6,1,1,5,1377.7438556449997,None,1,7,4,5,2,0,3,6,3,1378.9700602029998,None,1378.9700602029998,None,1378.9700602029998,None,1378.9700602029998,None,1378.9700602029998,None,1378.9700602029998,None,1378.9700602029998,None,1378.9700602029998,None,1379.0500943099996,1379.5565380520002,1379.0500943099996,1379.5565380520002,1379.0500943099996,1379.5565380520002,None,None,left,1.5653662779996012,1379.0500943099996,None,None,None,z,0.1793676819997927,1380.6761453419995,None,1380.889333948,None,,,,,,,,,109,32,2022_Sep_21_1336,templeton_exp2A_SD,2020.2.10,37.50657490254292,
,,,,,,,,,,,,,,,,,,,,,,75,0,75,0,,,,,,,,,,,,,,,,,,,,,,,,0.65,0.75,1.25,,,,,,,,,,,,,,,,,,,,,,,,,,,,,,,,,,,75,1365.2552967829997,0,8,3,6,2,5,4,9,1,1,6,1382.9952319579997,None,0,8,3,6,2,5,1,9,3,1384.2080776029998,None,1384.2080776029998,None,1384.2080776029998,None,1384.2080776029998,None,1384.2080776029998,None,1384.2080776029998,None,1384.2080776029998,None,1384.2080776029998,None,1384.3147189649999,1384.8211977749997,1384.3147189649999,1384.8211977749997,1384.3147189649999,1384.8211977749997,None,None,down,0.81274779999967,1384.3147189649999,None,None,None,z,0.17311138900004153,1385.19430586,None,1385.4076477199997,None,,,,,,,,,109,32,2022_Sep_21_1336,templeton_exp2A_SD,2020.2.10,37.50657490254292,
,,,,,,,,,,,,,,,,,,,,,,76,0,76,0,,,,,,,,,,,,,,,,,,,,,,,,0.65,0.75,1.25,,,,,,,,,,,,,,,,,,,,,,,,,,,,,,,,,,,76,1368.2478264359997,1,8,0,5,2,7,4,6,1,0,3,1385.9941348060001,None,1,8,0,5,2,7,4,6,3,1387.220295989,None,1387.220295989,None,1387.220295989,None,1387.220295989,None,1387.220295989,None,1387.220295989,None,1387.220295989,None,1387.220295989,None,1387.326956633,1387.8334320160002,1387.326956633,1387.8334320160002,1387.326956633,1387.8334320160002,None,None,down,1.5924915730001885,1387.326956633,None,None,None,z,0.17179903199939872,1388.9796509079997,None,1389.1928683259994,None,,,,,,,,,109,32,2022_Sep_21_1336,templeton_exp2A_SD,2020.2.10,37.50657490254292,
,,,,,,,,,,,,,,,,,,,,,,77,0,77,0,,,,,,,,,,,,,,,,,,,,,,,,2.05,0.75,2.05,,,,,,,,,,,,,,,,,,,,,,,,,,,,,,,,,,,77,1372.0294541550002,0,5,4,6,2,8,3,9,0,0,7,1389.7660478429998,None,0,5,4,6,2,8,3,9,0,1392.3650521179998,None,1392.3650521179998,None,1392.3650521179998,None,1392.3650521179998,None,1392.3650521179998,None,1392.3650521179998,None,1392.3650521179998,None,1392.3650521179998,None,1391.0855656089998,1391.591963625,1391.0855656089998,1391.591963625,1391.0855656089998,1391.591963625,None,None,left,1.306294906000403,1392.3650521179998,None,None,None,z,0.1601625459998104,1393.7511989059994,None,1393.964397885,None,,,,,,,,,109,32,2022_Sep_21_1336,templeton_exp2A_SD,2020.2.10,37.50657490254292,
,,,,,,,,,,,,,,,,,,,,,,78,0,78,0,,,,,,,,,,,,,,,,,,,,,,,,0.65,0.75,1.25,,,,,,,,,,,,,,,,,,,,,,,,,,,,,,,,,,,78,1376.8027853519998,0,9,3,5,4,7,1,8,1,0,1,1394.5508776440001,None,0,9,3,5,4,7,1,8,0,1395.7637305829994,None,1395.7637305829994,None,1395.7637305829994,None,1395.7637305829994,None,1395.7637305829994,None,1395.7637305829994,None,1395.7637305829994,None,1395.7637305829994,None,1395.8704114829998,1396.3768262819995,1395.8704114829998,1396.3768262819995,1395.8704114829998,1396.3768262819995,None,None,down,0.9210379810001541,1395.8704114829998,None,None,None,z,0.1748984769992603,1396.8565651379995,None,1397.0699462149996,None,,,,,,,,,109,32,2022_Sep_21_1336,templeton_exp2A_SD,2020.2.10,37.50657490254292,
,,,,,,,,,,,,,,,,,,,,,,79,0,79,0,,,,,,,,,,,,,,,,,,,,,,,,0.65,0.75,1.25,,,,,,,,,,,,,,,,,,,,,,,,,,,,,,,,,,,79,1379.906852307,3,6,0,8,2,9,4,5,1,1,1,1397.642998198,None,3,1,0,8,2,9,4,5,0,1398.8558887989993,None,1398.8558887989993,None,1398.8558887989993,None,1398.8558887989993,None,1398.8558887989993,None,1398.8558887989993,None,1398.8558887989993,None,1398.8558887989993,None,1398.9358547359998,1399.4423305680002,1398.9358547359998,1399.4423305680002,1398.9358547359998,1399.4423305680002,None,None,down,1.0395741429992995,1398.9358547359998,None,None,None,z,0.17065326199917763,1400.0288135800001,None,1400.2420282859994,None,,,,,,,,,109,32,2022_Sep_21_1336,templeton_exp2A_SD,2020.2.10,37.50657490254292,
,,,,,,,,,,,,,,,,,,,,,,80,0,80,0,,,,,,,,,,,,,,,,,,,,,,,,0.65,0.75,1.25,,,,,,,,,,,,,,,,,,,,,,,,,,,,,,,,,,,80,1383.0815911219997,1,6,2,5,3,7,0,8,1,0,7,1400.82849963,None,1,6,2,5,3,7,0,8,0,1402.0279801769993,None,1402.0279801769993,None,1402.0279801769993,None,1402.0279801769993,None,1402.0279801769993,None,1402.0279801769993,None,1402.0279801769993,None,1402.0279801769993,None,1402.1346835160002,1402.641118728,1402.1346835160002,1402.641118728,1402.1346835160002,1402.641118728,None,None,down,0.9127625959999932,1402.1346835160002,None,None,None,z,0.11856227099997341,1403.120890405,None,1403.2809059049996,None,,,,,,,,,109,32,2022_Sep_21_1336,templeton_exp2A_SD,2020.2.10,37.50657490254292,
,,,,,,,,,,,,,,,,,,,,,,81,0,81,0,,,,,,,,,,,,,,,,,,,,,,,,2.05,0.75,2.05,,,,,,,,,,,,,,,,,,,,,,,,,,,,,,,,,,,81,1386.118381157,0,8,3,5,1,7,2,9,0,0,0,1403.8539619309995,None,0,8,3,5,1,7,2,9,0,1406.4797032779998,None,1406.4797032779998,None,1406.4797032779998,None,1406.4797032779998,None,1406.4797032779998,None,1406.4797032779998,None,1406.4797032779998,None,1406.4797032779998,None,1405.1734629329994,1405.6799626289994,1405.1734629329994,1405.6799626289994,1405.1734629329994,1405.6799626289994,None,None,left,1.655736781000087,1406.4797032779998,None,None,None,z,0.15514914100003807,1408.212302674,None,1408.3989645559996,None,,,,,,,,,109,32,2022_Sep_21_1336,templeton_exp2A_SD,2020.2.10,37.50657490254292,
,,,,,,,,,,,,,,,,,,,,,,82,0,82,0,,,,,,,,,,,,,,,,,,,,,,,,0.65,0.75,1.25,,,,,,,,,,,,,,,,,,,,,,,,,,,,,,,,,,,82,1391.2375691360003,4,7,2,9,0,6,3,5,1,0,4,1408.9854570070002,None,4,7,2,9,0,6,3,5,0,1410.198281852,None,1410.198281852,None,1410.198281852,None,1410.198281852,None,1410.198281852,None,1410.198281852,None,1410.198281852,None,1410.198281852,None,1410.3048823419995,1410.8113464749995,1410.3048823419995,1410.8113464749995,1410.3048823419995,1410.8113464749995,None,None,left,2.2065638829999443,1410.3048823419995,None,None,None,c,1.0928162310001426,1412.5706485559995,None,1413.6902558370002,None,,,,,,,,,109,32,2022_Sep_21_1336,templeton_exp2A_SD,2020.2.10,37.50657490254292,
,,,,,,,,,,,,,,,,,,,,,,83,0,83,0,,,,,,,,,,,,,,,,,,,,,,,,0.65,0.75,1.25,,,,,,,,,,,,,,,,,,,,,,,,,,,,,,,,,,,83,1396.5267230609998,4,5,0,7,2,8,3,9,1,1,6,1414.2634244370001,None,4,5,0,7,2,8,1,9,0,1415.4762925019995,None,1415.4762925019995,None,1415.4762925019995,None,1415.4762925019995,None,1415.4762925019995,None,1415.4762925019995,None,1415.4762925019995,None,1415.4762925019995,None,1415.582926252,1416.0893136179993,1415.582926252,1416.0893136179993,1415.582926252,1416.0893136179993,None,None,down,0.8804289219997372,1415.582926252,None,None,None,z,0.13694518000011158,1416.542507702,None,1416.7291028620002,None,,,,,,,,,109,32,2022_Sep_21_1336,templeton_exp2A_SD,2020.2.10,37.50657490254292,
,,,,,,,,,,,,,,,,,,,,,,84,0,84,0,,,,,,,,,,,,,,,,,,,,,,,,2.05,0.75,2.05,,,,,,,,,,,,,,,,,,,,,,,,,,,,,,,,,,,84,1399.56741143,4,5,2,6,1,9,0,8,0,1,2,1417.3155990739997,None,4,5,3,6,1,9,0,8,0,1419.941084041,None,1419.941084041,None,1419.941084041,None,1419.941084041,None,1419.941084041,None,1419.941084041,None,1419.941084041,None,1419.941084041,None,1418.6351218189993,1419.1415732669993,1418.6351218189993,1419.1415732669993,1418.6351218189993,1419.1415732669993,None,None,down,0.858359801000006,1419.941084041,None,None,None,c,0.6452565790004883,1420.8741992799996,None,1421.5673417990001,None,,,,,,,,,109,32,2022_Sep_21_1336,templeton_exp2A_SD,2020.2.10,37.50657490254292,
,,,,,,,,,,,,,,,,,,,,,,85,0,85,0,,,,,,,,,,,,,,,,,,,,,,,,0.65,0.75,1.25,,,,,,,,,,,,,,,,,,,,,,,,,,,,,,,,,,,85,1404.4063529449995,4,7,3,8,2,6,1,5,1,0,1,1422.1536736379994,None,4,7,3,8,2,6,1,5,0,1423.3799162229998,None,1423.3799162229998,None,1423.3799162229998,None,1423.3799162229998,None,1423.3799162229998,None,1423.3799162229998,None,1423.3799162229998,None,1423.3799162229998,None,1423.4598888889996,1423.9663981980002,1423.4598888889996,1423.9663981980002,1423.4598888889996,1423.9663981980002,None,None,down,1.0275719000001118,1423.4598888889996,None,None,None,z,0.22256942600051843,1424.5528489950002,None,1424.819413917,None,,,,,,,,,109,32,2022_Sep_21_1336,templeton_exp2A_SD,2020.2.10,37.50657490254292,
,,,,,,,,,,,,,,,,,,,,,,86,0,86,0,,,,,,,,,,,,,,,,,,,,,,,,2.05,0.75,2.05,,,,,,,,,,,,,,,,,,,,,,,,,,,,,,,,,,,86,1407.6582368769996,0,5,4,9,1,8,3,6,0,1,7,1425.4057861129995,None,0,5,4,9,1,8,3,2,1,1428.0048057229997,None,1428.0048057229997,None,1428.0048057229997,None,1428.0048057229997,None,1428.0048057229997,None,1428.0048057229997,None,1428.0048057229997,None,1428.0048057229997,None,1426.698703524,1427.2051094540002,1426.698703524,1427.2051094540002,1426.698703524,1427.2051094540002,None,None,left,0.9466516970005614,1428.0048057229997,None,None,None,z,0.1576527930001248,1429.0178128460002,None,1429.204336144,None,,,,,,,,,109,32,2022_Sep_21_1336,templeton_exp2A_SD,2020.2.10,37.50657490254292,
,,,,,,,,,,,,,,,,,,,,,,87,0,87,0,,,,,,,,,,,,,,,,,,,,,,,,0.65,0.75,1.25,,,,,,,,,,,,,,,,,,,,,,,,,,,,,,,,,,,87,1412.0440542449996,0,9,3,7,4,6,1,5,1,0,4,1429.7907929490002,None,0,9,3,7,4,6,1,5,1,1430.9903767239994,None,1430.9903767239994,None,1430.9903767239994,None,1430.9903767239994,None,1430.9903767239994,None,1430.9903767239994,None,1430.9903767239994,None,1430.9903767239994,None,1431.0969881199999,1431.60344016,1431.0969881199999,1431.60344016,1431.0969881199999,1431.60344016,None,None,down,2.238395270000183,1431.0969881199999,None,None,None,z,0.19405748899953323,1433.3894044609997,None,1433.6294161810001,None,,,,,,,,,109,32,2022_Sep_21_1336,templeton_exp2A_SD,2020.2.10,37.50657490254292,
,,,,,,,,,,,,,,,,,,,,,,88,0,88,0,,,,,,,,,,,,,,,,,,,,,,,,0.65,0.75,1.25,,,,,,,,,,,,,,,,,,,,,,,,,,,,,,,,,,,88,1416.4692184469995,1,9,3,5,0,7,4,6,1,1,2,1434.2158654179993,None,1,9,2,5,0,7,4,6,1,1435.4420221069995,None,1435.4420221069995,None,1435.4420221069995,None,1435.4420221069995,None,1435.4420221069995,None,1435.4420221069995,None,1435.4420221069995,None,1435.4420221069995,None,1435.548692292,1436.055129155,1435.548692292,1436.055129155,1435.548692292,1436.055129155,None,None,down,3.21876909599996,1435.548692292,None,None,None,x,0.20400088599944866,1438.827455689,None,1439.0673700569996,None,,,,,,,,,109,32,2022_Sep_21_1336,templeton_exp2A_SD,2020.2.10,37.50657490254292,
,,,,,,,,,,,,,,,,,,,,,,89,0,89,0,,,,,,,,,,,,,,,,,,,,,,,,0.65,0.75,1.25,,,,,,,,,,,,,,,,,,,,,,,,,,,,,,,,,,,89,1421.905156676,4,5,0,8,3,6,2,7,1,1,1,1439.6537093030001,None,4,1,0,8,3,6,2,7,1,1440.879992395,None,1440.879992395,None,1440.879992395,None,1440.879992395,None,1440.879992395,None,1440.879992395,None,1440.879992395,None,1440.879992395,None,1440.9599121820002,1441.466450455,1440.9599121820002,1441.466450455,1440.9599121820002,1441.466450455,None,None,down,1.8155322259999593,1440.9599121820002,None,None,None,z,0.1468881569999212,1442.8525827989997,None,1443.0391633250001,None,,,,,,,,,109,32,2022_Sep_21_1336,templeton_exp2A_SD,2020.2.10,37.50657490254292,
,,,,,,,,,,,,,,,,,,,,,,90,0,90,0,,,,,,,,,,,,,,,,,,,,,,,,2.05,0.75,2.05,,,,,,,,,,,,,,,,,,,,,,,,,,,,,,,,,,,90,1463.0987770430002,3,7,4,5,1,9,0,8,0,1,1,1480.838197999,None,3,2,4,5,1,9,0,8,2,1483.4371680429995,None,1483.4371680429995,None,1483.4371680429995,None,1483.4371680429995,None,1483.4371680429995,None,1483.4371680429995,None,1483.4371680429995,None,1483.4371680429995,None,1482.1309874029994,1482.6375353909998,1482.1309874029994,1482.6375353909998,1482.1309874029994,1482.6375353909998,None,None,left,2.2102685910003856,1483.4371680429995,None,None,None,z,0.24848256499990384,1485.7029826709995,None,1485.996240908,None,,,,,,,,,109,32,2022_Sep_21_1336,templeton_exp2A_SD,2020.2.10,37.50657490254292,
,,,,,,,,,,,,,,,,,,,,,,91,0,91,0,,,,,,,,,,,,,,,,,,,,,,,,2.05,0.75,2.05,,,,,,,,,,,,,,,,,,,,,,,,,,,,,,,,,,,91,1468.8347160829999,3,9,2,6,0,8,4,7,0,0,6,1486.5826832909997,None,3,9,2,6,0,8,4,7,3,1489.2082874979997,None,1489.2082874979997,None,1489.2082874979997,None,1489.2082874979997,None,1489.2082874979997,None,1489.2082874979997,None,1489.2082874979997,None,1489.2082874979997,None,1487.902188946,1488.4086075489995,1487.902188946,1488.4086075489995,1487.902188946,1488.4086075489995,None,None,down,1.0790747219998593,1489.2082874979997,None,None,None,z,0.19687043500016443,1490.3545766549996,None,1490.5944590079998,None,,,,,,,,,109,32,2022_Sep_21_1336,templeton_exp2A_SD,2020.2.10,37.50657490254292,
,,,,,,,,,,,,,,,,,,,,,,92,0,92,0,,,,,,,,,,,,,,,,,,,,,,,,2.05,0.75,2.05,,,,,,,,,,,,,,,,,,,,,,,,,,,,,,,,,,,92,1473.4315455710002,4,5,0,8,3,9,1,7,0,1,5,1491.167601817,None,4,5,0,8,3,2,1,7,4,1493.7666327890001,None,1493.7666327890001,None,1493.7666327890001,None,1493.7666327890001,None,1493.7666327890001,None,1493.7666327890001,None,1493.7666327890001,None,1493.7666327890001,None,1492.4870321139997,1492.993536975,1492.4870321139997,1492.993536975,1492.4870321139997,1492.993536975,None,None,left,0.9288036960006139,1493.7666327890001,None,None,None,z,0.17453593000027467,1494.7529268029994,None,1494.9661745739995,None,,,,,,,,,109,32,2022_Sep_21_1336,templeton_exp2A_SD,2020.2.10,37.50657490254292,
,,,,,,,,,,,,,,,,,,,,,,93,0,93,0,,,,,,,,,,,,,,,,,,,,,,,,2.05,0.75,2.05,,,,,,,,,,,,,,,,,,,,,,,,,,,,,,,,,,,93,1477.8055164770003,0,7,3,8,4,6,1,5,0,0,2,1495.5526404149996,None,0,7,3,8,4,6,1,5,0,1498.1649224530001,None,1498.1649224530001,None,1498.1649224530001,None,1498.1649224530001,None,1498.1649224530001,None,1498.1649224530001,None,1498.1649224530001,None,1498.1649224530001,None,1496.8587466029994,1497.365250164,1496.8587466029994,1497.365250164,1496.8587466029994,1497.365250164,None,None,left,1.3945284760002323,1498.1649224530001,None,None,None,z,0.19239903099969524,1499.6310675469995,None,1499.8709926339998,None,,,,,,,,,109,32,2022_Sep_21_1336,templeton_exp2A_SD,2020.2.10,37.50657490254292,
,,,,,,,,,,,,,,,,,,,,,,94,0,94,0,,,,,,,,,,,,,,,,,,,,,,,,2.05,0.75,2.05,,,,,,,,,,,,,,,,,,,,,,,,,,,,,,,,,,,94,1482.7072434689999,4,9,2,7,3,8,1,5,0,0,4,1500.44404819,None,4,9,2,7,3,8,1,5,0,1503.0430766729996,None,1503.0430766729996,None,1503.0430766729996,None,1503.0430766729996,None,1503.0430766729996,None,1503.0430766729996,None,1503.0430766729996,None,1503.0430766729996,None,1501.7635886019998,1502.2699936709996,1501.7635886019998,1502.2699936709996,1501.7635886019998,1502.2699936709996,None,None,left,1.220359725999515,1503.0430766729996,None,None,None,z,0.18093666900040262,1504.322530253,None,1504.5358908079997,None,,,,,,,,,109,32,2022_Sep_21_1336,templeton_exp2A_SD,2020.2.10,37.50657490254292,
,,,,,,,,,,,,,,,,,,,,,,95,0,95,0,,,,,,,,,,,,,,,,,,,,,,,,0.65,0.75,1.25,,,,,,,,,,,,,,,,,,,,,,,,,,,,,,,,,,,95,1487.3731351529996,4,5,1,7,0,9,3,8,1,0,5,1505.1090030999994,None,4,5,1,7,0,9,3,8,0,1506.3218120229994,None,1506.3218120229994,None,1506.3218120229994,None,1506.3218120229994,None,1506.3218120229994,None,1506.3218120229994,None,1506.3218120229994,None,1506.3218120229994,None,1506.428500379,1506.9348641319993,1506.428500379,1506.9348641319993,1506.428500379,1506.9348641319993,None,None,down,0.9868552579991956,1506.428500379,None,None,None,z,0.20870223899964913,1507.4947639209995,None,1507.7346700560001,None,,,,,,,,,109,32,2022_Sep_21_1336,templeton_exp2A_SD,2020.2.10,37.50657490254292,
,,,,,,,,,,,,,,,,,,,,,,96,0,96,0,,,,,,,,,,,,,,,,,,,,,,,,0.65,0.75,1.25,,,,,,,,,,,,,,,,,,,,,,,,,,,,,,,,,,,96,1490.57081647,3,8,2,7,0,9,4,5,1,1,7,1508.3077360449997,None,3,8,2,7,0,9,4,1,0,1509.5206310509993,None,1509.5206310509993,None,1509.5206310509993,None,1509.5206310509993,None,1509.5206310509993,None,1509.5206310509993,None,1509.5206310509993,None,1509.5206310509993,None,1509.6272705479996,1510.1337656669994,1509.6272705479996,1510.1337656669994,1509.6272705479996,1510.1337656669994,None,None,down,1.1721301170000515,1509.6272705479996,None,None,None,z,0.18603619700024865,1510.8534094429997,None,1511.066693187,None,,,,,,,,,109,32,2022_Sep_21_1336,templeton_exp2A_SD,2020.2.10,37.50657490254292,
,,,,,,,,,,,,,,,,,,,,,,97,0,97,0,,,,,,,,,,,,,,,,,,,,,,,,2.05,0.75,2.05,,,,,,,,,,,,,,,,,,,,,,,,,,,,,,,,,,,97,1493.9039783729995,3,6,0,9,1,5,2,8,0,0,5,1511.6398512369997,None,3,6,0,9,1,5,2,8,1,1514.2387873099997,None,1514.2387873099997,None,1514.2387873099997,None,1514.2387873099997,None,1514.2387873099997,None,1514.2387873099997,None,1514.2387873099997,None,1514.2387873099997,None,1512.9593580049996,1513.465822919,1512.9593580049996,1513.465822919,1512.9593580049996,1513.465822919,None,None,down,1.9766522010004337,1514.2387873099997,None,None,None,z,0.10803354500058049,1516.291419753,None,1516.451317426,None,,,,,,,,,109,32,2022_Sep_21_1336,templeton_exp2A_SD,2020.2.10,37.50657490254292,
,,,,,,,,,,,,,,,,,,,,,,98,0,98,0,,,,,,,,,,,,,,,,,,,,,,,,0.65,0.75,1.25,,,,,,,,,,,,,,,,,,,,,,,,,,,,,,,,,,,98,1499.289532185,4,7,3,5,2,6,1,9,1,0,7,1517.037767279,None,4,7,3,5,2,6,1,9,1,1518.250633908,None,1518.250633908,None,1518.250633908,None,1518.250633908,None,1518.250633908,None,1518.250633908,None,1518.250633908,None,1518.250633908,None,1518.3573091809994,1518.8637807639998,1518.3573091809994,1518.8637807639998,1518.3573091809994,1518.8637807639998,None,None,down,0.8261529530000189,1518.3573091809994,None,None,None,z,0.17045572999995784,1519.2369988609998,None,1519.450225349,None,,,,,,,,,109,32,2022_Sep_21_1336,templeton_exp2A_SD,2020.2.10,37.50657490254292,
,,,,,,,,,,,,,,,,,,,,,,99,0,99,0,,,,,,,,,,,,,,,,,,,,,,,,0.65,0.75,1.25,,,,,,,,,,,,,,,,,,,,,,,,,,,,,,,,,,,99,1502.2898084990002,4,7,1,6,0,5,3,8,1,1,7,1520.0366317079997,None,4,7,1,6,0,5,3,2,1,1521.2628727909996,None,1521.2628727909996,None,1521.2628727909996,None,1521.2628727909996,None,1521.2628727909996,None,1521.2628727909996,None,1521.2628727909996,None,1521.2628727909996,None,1521.3428494459995,1521.849273158,1521.3428494459995,1521.849273158,1521.3428494459995,1521.849273158,None,None,left,1.0006114249999882,1521.3428494459995,None,None,None,z,0.22236026899918215,1522.4091076859995,None,1522.6756169769997,None,,,,,,,,,109,32,2022_Sep_21_1336,templeton_exp2A_SD,2020.2.10,37.50657490254292,
,,,,,,,,,,,,,,,,,,,,,,100,0,100,0,,,,,,,,,,,,,,,,,,,,,,,,0.65,0.75,1.25,,,,,,,,,,,,,,,,,,,,,,,,,,,,,,,,,,,100,1505.514639604,4,6,0,7,3,5,1,9,1,0,2,1523.2620706819998,None,4,6,0,7,3,5,1,9,1,1524.4883054470001,None,1524.4883054470001,None,1524.4883054470001,None,1524.4883054470001,None,1524.4883054470001,None,1524.4883054470001,None,1524.4883054470001,None,1524.4883054470001,None,1524.5682932499994,1525.074718248,1524.5682932499994,1525.074718248,1524.5682932499994,1525.074718248,None,None,left,1.2071130690001155,1524.5682932499994,None,None,None,z,0.3037319839995689,1525.847718565,None,1526.194342625,None,,,,,,,,,109,32,2022_Sep_21_1336,templeton_exp2A_SD,2020.2.10,37.50657490254292,
,,,,,,,,,,,,,,,,,,,,,,101,0,101,0,,,,,,,,,,,,,,,,,,,,,,,,2.05,0.75,2.05,,,,,,,,,,,,,,,,,,,,,,,,,,,,,,,,,,,101,1509.0341496399997,0,9,1,6,4,7,2,8,0,1,0,1526.7807908139994,None,3,9,1,6,4,7,2,8,0,1529.3931365789995,None,1529.3931365789995,None,1529.3931365789995,None,1529.3931365789995,None,1529.3931365789995,None,1529.3931365789995,None,1529.3931365789995,None,1529.3931365789995,None,1528.0869136729998,1528.593420477,1528.0869136729998,1528.593420477,1528.0869136729998,1528.593420477,None,None,down,1.0383119799998894,1529.3931365789995,None,None,None,z,0.19340812300015386,1530.486056183,None,1530.725919376,None,,,,,,,,,109,32,2022_Sep_21_1336,templeton_exp2A_SD,2020.2.10,37.50657490254292,
,,,,,,,,,,,,,,,,,,,,,,102,0,102,0,,,,,,,,,,,,,,,,,,,,,,,,2.05,0.75,2.05,,,,,,,,,,,,,,,,,,,,,,,,,,,,,,,,,,,102,1513.562353624,2,5,4,8,3,9,1,7,0,1,7,1531.2990748860002,None,2,5,4,8,3,9,1,0,1,1533.8980300909998,None,1533.8980300909998,None,1533.8980300909998,None,1533.8980300909998,None,1533.8980300909998,None,1533.8980300909998,None,1533.8980300909998,None,1533.8980300909998,None,1532.5919043149997,1533.09839,1532.5919043149997,1533.09839,1532.5919043149997,1533.09839,None,None,left,1.5013193159993534,1533.8980300909998,None,None,None,z,0.20067531200038502,1535.470786459,None,1535.7107014289995,None,,,,,,,,,109,32,2022_Sep_21_1336,templeton_exp2A_SD,2020.2.10,37.50657490254292,
,,,,,,,,,,,,,,,,,,,,,,103,0,103,0,,,,,,,,,,,,,,,,,,,,,,,,2.05,0.75,2.05,,,,,,,,,,,,,,,,,,,,,,,,,,,,,,,,,,,103,1518.549335146,4,5,2,9,1,7,3,6,0,0,3,1536.2971793030001,None,4,5,2,9,1,7,3,6,2,1538.909523372,None,1538.909523372,None,1538.909523372,None,1538.909523372,None,1538.909523372,None,1538.909523372,None,1538.909523372,None,1538.909523372,None,1537.6033014979994,1538.1098144469997,1537.6033014979994,1538.1098144469997,1537.6033014979994,1538.1098144469997,None,None,down,1.217925988999923,1538.909523372,None,None,None,z,0.20239605999995547,1540.1890569369998,None,1540.4289609809994,None,,,,,,,,,109,32,2022_Sep_21_1336,templeton_exp2A_SD,2020.2.10,37.50657490254292,
,,,,,,,,,,,,,,,,,,,,,,104,0,104,0,,,,,,,,,,,,,,,,,,,,,,,,0.65,0.75,1.25,,,,,,,,,,,,,,,,,,,,,,,,,,,,,,,,,,,104,1523.2675520789999,2,6,4,8,0,5,3,7,1,1,1,1541.0153961249998,None,2,1,4,8,0,5,3,7,2,1542.2282653860002,None,1542.2282653860002,None,1542.2282653860002,None,1542.2282653860002,None,1542.2282653860002,None,1542.2282653860002,None,1542.2282653860002,None,1542.2282653860002,None,1542.3348808989995,1542.8413292019995,1542.3348808989995,1542.8413292019995,1542.3348808989995,1542.8413292019995,None,None,down,1.096565453999574,1542.3348808989995,None,None,None,z,0.15573863700046786,1543.5077223279995,None,1543.69426397,None,,,,,,,,,109,32,2022_Sep_21_1336,templeton_exp2A_SD,2020.2.10,37.50657490254292,
,,,,,,,,,,,,,,,,,,,,,,105,0,105,0,,,,,,,,,,,,,,,,,,,,,,,,0.65,0.75,1.25,,,,,,,,,,,,,,,,,,,,,,,,,,,,,,,,,,,105,1528.8361332069999,1,8,2,6,3,5,0,7,1,1,5,1546.5865411240002,None,1,8,2,6,3,4,0,7,2,1547.8128210209998,None,1547.8128210209998,None,1547.8128210209998,None,1547.8128210209998,None,1547.8128210209998,None,1547.8128210209998,None,1547.8128210209998,None,1547.8128210209998,None,1547.8927961399995,1548.3992607179998,1547.8927961399995,1548.3992607179998,1547.8927961399995,1548.3992607179998,None,None,down,1.0826567600006456,1547.8927961399995,None,None,None,z,0.18447135699989303,1549.038982694,None,1549.2522253649995,None,,,,,,,,,109,32,2022_Sep_21_1336,templeton_exp2A_SD,2020.2.10,37.50657490254292,
,,,,,,,,,,,,,,,,,,,,,,106,0,106,0,,,,,,,,,,,,,,,,,,,,,,,,2.05,0.75,2.05,,,,,,,,,,,,,,,,,,,,,,,,,,,,,,,,,,,106,1532.0905380180002,0,5,4,7,2,6,3,9,0,1,6,1549.838636124,None,0,5,4,7,2,6,1,9,3,1552.451012038,None,1552.451012038,None,1552.451012038,None,1552.451012038,None,1552.451012038,None,1552.451012038,None,1552.451012038,None,1552.451012038,None,1551.1714561190001,1551.6780216899997,1551.1714561190001,1551.6780216899997,1551.1714561190001,1551.6780216899997,None,None,left,0.8844297559999177,1552.451012038,None,None,None,z,0.16483500499998627,1553.4106182219994,None,1553.623898449,None,,,,,,,,,109,32,2022_Sep_21_1336,templeton_exp2A_SD,2020.2.10,37.50657490254292,
,,,,,,,,,,,,,,,,,,,,,,107,0,107,0,,,,,,,,,,,,,,,,,,,,,,,,2.05,0.75,2.05,,,,,,,,,,,,,,,,,,,,,,,,,,,,,,,,,,,107,1536.460924817,1,6,4,9,3,8,2,5,0,1,0,1554.197060171,None,0,6,4,9,3,8,2,5,4,1556.7960751379997,None,1556.7960751379997,None,1556.7960751379997,None,1556.7960751379997,None,1556.7960751379997,None,1556.7960751379997,None,1556.7960751379997,None,1556.7960751379997,None,1555.516563833,1556.022925749,1555.516563833,1556.022925749,1555.516563833,1556.022925749,None,None,left,2.3872714100007215,1556.7960751379997,None,None,None,x,0.2390625630005161,1559.2484895379994,None,1559.515012506,None,,,,,,,,,109,32,2022_Sep_21_1336,templeton_exp2A_SD,2020.2.10,37.50657490254292,
,,,,,,,,,,,,,,,,,,,,,,108,0,108,0,,,,,,,,,,,,,,,,,,,,,,,,2.05,0.75,2.05,,,,,,,,,,,,,,,,,,,,,,,,,,,,,,,,,,,108,1542.3530403329996,0,5,4,7,2,6,3,8,0,1,3,1560.1014854899995,None,0,5,4,1,2,6,3,8,5,1562.700512765,None,1562.700512765,None,1562.700512765,None,1562.700512765,None,1562.700512765,None,1562.700512765,None,1562.700512765,None,1562.700512765,None,1561.4209620089996,1561.9274184819997,1561.4209620089996,1561.9274184819997,1561.4209620089996,1561.9274184819997,None,None,left,2.8029225000000224,1562.700512765,None,None,None,x,0.21211563699944236,1565.579339248,None,1565.8192683219995,None,,,,,,,,,109,32,2022_Sep_21_1336,templeton_exp2A_SD,2020.2.10,37.50657490254292,
,,,,,,,,,,,,,,,,,,,,,,109,0,109,0,,,,,,,,,,,,,,,,,,,,,,,,2.05,0.75,2.05,,,,,,,,,,,,,,,,,,,,,,,,,,,,,,,,,,,109,1548.6573406850002,3,8,1,9,0,5,4,6,0,0,4,1566.4057316749995,None,3,8,1,9,0,5,4,6,6,1569.0314446949997,None,1569.0314446949997,None,1569.0314446949997,None,1569.0314446949997,None,1569.0314446949997,None,1569.0314446949997,None,1569.0314446949997,None,1569.0314446949997,None,1567.7252613479995,1568.231735663,1567.7252613479995,1568.231735663,1567.7252613479995,1568.231735663,None,None,down,2.2480017400002907,1569.0314446949997,None,None,None,z,0.7768878639999457,1571.3505656259995,None,1572.1768806929995,None,,,,,,,,,109,32,2022_Sep_21_1336,templeton_exp2A_SD,2020.2.10,37.50657490254292,
,,,,,,,,,,,,,,,,,,,,,,110,0,110,0,,,,,,,,,,,,,,,,,,,,,,,,0.65,0.75,1.25,,,,,,,,,,,,,,,,,,,,,,,,,,,,,,,,,,,110,1555.0149127289997,3,9,4,6,2,8,0,7,1,0,4,1572.7631550529995,None,3,9,4,6,2,8,0,7,6,1573.976194668,None,1573.976194668,None,1573.976194668,None,1573.976194668,None,1573.976194668,None,1573.976194668,None,1573.976194668,None,1573.976194668,None,1574.0828656140002,1574.589296876,1574.0828656140002,1574.589296876,1574.0828656140002,1574.589296876,None,None,down,0.9005789009997898,1574.0828656140002,None,None,None,z,0.8689920030001304,1575.0424626129998,None,1575.9488180839999,None,,,,,,,,,109,32,2022_Sep_21_1336,templeton_exp2A_SD,2020.2.10,37.50657490254292,
,,,,,,,,,,,,,,,,,,,,,,111,0,111,0,,,,,,,,,,,,,,,,,,,,,,,,0.65,0.75,1.25,,,,,,,,,,,,,,,,,,,,,,,,,,,,,,,,,,,111,1558.787440514,1,7,4,6,3,8,2,5,1,1,3,1576.5352742320001,None,1,7,4,0,3,8,2,5,6,1577.7481323889997,None,1577.7481323889997,None,1577.7481323889997,None,1577.7481323889997,None,1577.7481323889997,None,1577.7481323889997,None,1577.7481323889997,None,1577.7481323889997,None,1577.8547276649997,1578.3612286509997,1577.8547276649997,1578.3612286509997,1577.8547276649997,1578.3612286509997,None,None,down,0.9447331760002271,1577.8547276649997,None,None,None,z,0.28373166599976685,1578.867718245,None,1579.187522139,None,,,,,,,,,109,32,2022_Sep_21_1336,templeton_exp2A_SD,2020.2.10,37.50657490254292,
,,,,,,,,,,,,,,,,,,,,,,112,0,112,0,,,,,,,,,,,,,,,,,,,,,,,,0.65,0.75,1.25,,,,,,,,,,,,,,,,,,,,,,,,,,,,,,,,,,,112,1562.0268788450003,2,7,0,9,1,5,3,6,1,1,3,1579.7739964369994,None,2,7,0,4,1,5,3,6,6,1581.0002403589997,None,1581.0002403589997,None,1581.0002403589997,None,1581.0002403589997,None,1581.0002403589997,None,1581.0002403589997,None,1581.0002403589997,None,1581.0002403589997,None,1581.0802045760001,1581.5867089590001,1581.0802045760001,1581.5867089590001,1581.0802045760001,1581.5867089590001,None,None,down,0.7432072589999734,1581.0802045760001,None,None,None,z,0.19957056000021112,1581.8798982459994,None,1582.119847903,None,,,,,,,,,109,32,2022_Sep_21_1336,templeton_exp2A_SD,2020.2.10,37.50657490254292,
,,,,,,,,,,,,,,,,,,,,,,113,0,113,0,,,,,,,,,,,,,,,,,,,,,,,,2.05,0.75,2.05,,,,,,,,,,,,,,,,,,,,,,,,,,,,,,,,,,,113,1564.9597774839995,3,9,4,7,0,8,1,6,0,1,5,1582.7062693339994,None,3,9,4,7,0,2,1,6,7,1585.3186119309994,None,1585.3186119309994,None,1585.3186119309994,None,1585.3186119309994,None,1585.3186119309994,None,1585.3186119309994,None,1585.3186119309994,None,1585.3186119309994,None,1584.0124347969995,1584.5189068259997,1584.0124347969995,1584.5189068259997,1584.0124347969995,1584.5189068259997,None,None,left,1.7607980109996788,1585.3186119309994,None,None,None,x,0.47355821400014975,1587.1579069149993,None,1587.6643821469997,None,,,,,,,,,109,32,2022_Sep_21_1336,templeton_exp2A_SD,2020.2.10,37.50657490254292,
,,,,,,,,,,,,,,,,,,,,,,114,0,114,0,,,,,,,,,,,,,,,,,,,,,,,,0.65,0.75,1.25,,,,,,,,,,,,,,,,,,,,,,,,,,,,,,,,,,,114,1570.5033311279994,1,7,0,5,4,6,2,9,1,0,6,1588.2508212459998,None,1,7,0,5,4,6,2,9,7,1589.4503747869994,None,1589.4503747869994,None,1589.4503747869994,None,1589.4503747869994,None,1589.4503747869994,None,1589.4503747869994,None,1589.4503747869994,None,1589.4503747869994,None,1589.556897085,1590.0634618619997,1589.556897085,1590.0634618619997,1589.556897085,1590.0634618619997,None,None,down,0.9146021379992817,1589.556897085,None,None,None,z,0.25618706600016594,1590.5432788729995,None,1590.8365245599998,None,,,,,,,,,109,32,2022_Sep_21_1336,templeton_exp2A_SD,2020.2.10,37.50657490254292,
,,,,,,,,,,,,,,,,,,,,,,115,0,115,0,,,,,,,,,,,,,,,,,,,,,,,,0.65,0.75,1.25,,,,,,,,,,,,,,,,,,,,,,,,,,,,,,,,,,,115,1573.6730376209998,3,5,4,9,2,8,1,7,1,1,5,1591.4095504030001,None,3,5,4,9,2,0,1,7,7,1592.6225146859997,None,1592.6225146859997,None,1592.6225146859997,None,1592.6225146859997,None,1592.6225146859997,None,1592.6225146859997,None,1592.6225146859997,None,1592.6225146859997,None,1592.729079326,1593.2356169249997,1592.729079326,1593.2356169249997,1592.729079326,1593.2356169249997,None,None,down,2.358340073000363,1592.729079326,None,None,None,z,0.18056476800029486,1595.1549026049997,None,1595.3681291619996,None,,,,,,,,,109,32,2022_Sep_21_1336,templeton_exp2A_SD,2020.2.10,37.50657490254292,
,,,,,,,,,,,,,,,,,,,,,,116,0,116,0,,,,,,,,,,,,,,,,,,,,,,,,2.05,0.75,2.05,,,,,,,,,,,,,,,,,,,,,,,,,,,,,,,,,,,116,1578.2075251119995,1,8,0,9,4,7,3,6,0,0,6,1595.9544804309999,None,1,8,0,9,4,7,3,6,8,1598.5669158949995,None,1598.5669158949995,None,1598.5669158949995,None,1598.5669158949995,None,1598.5669158949995,None,1598.5669158949995,None,1598.5669158949995,None,1598.5669158949995,None,1597.287403202,1597.793862482,1597.287403202,1597.793862482,1597.287403202,1597.793862482,None,None,down,0.9045354600002611,1598.5669158949995,None,None,None,z,0.16891711500011297,1599.526550271,None,1599.739838116,None,1,,,,,,,,109,32,2022_Sep_21_1336,templeton_exp2A_SD,2020.2.10,37.50657490254292,
,,,,,,,,,,,,,,,,,,,,,,117,0,117,0,,,,,,,,,,,,,,,,,,,,,,,,2.9000000000000004,1.6,2.9000000000000004,,,,,,,,,,,,,,,,,,,,,,,,,,,,,,,,,,,117,1582.5756804900002,4,8,2,9,3,7,0,5,0,1,2,1600.3129262719995,None,4,8,1,9,3,7,0,5,,1603.7649512839998,None,1603.7649512839998,None,1603.7649512839998,None,1603.7649512839998,None,1603.7649512839998,None,1603.7649512839998,None,1603.7649512839998,None,1603.7649512839998,None,1602.4854523889999,1602.991855614,1602.4854523889999,1602.991855614,1602.4854523889999,1602.991855614,None,None,down,1.6584952149996752,1603.7649512839998,None,None,None,z,0.08583910300058051,1605.4976256660002,None,1605.6309112649997,None,,0,0,1,,,,,109,32,2022_Sep_21_1336,templeton_exp2A_SD,2020.2.10,37.50657490254292,
,,,,,,,,,,,,,,,,,,,,,,118,0,118,0,,,,,,,,,,,,,,,,,,,,,,,,2.7,2.8000000000000003,3.3000000000000003,,,,,,,,,,,,,,,,,,,,,,,,,,,,,,,,,,,118,1588.4704943919996,0,7,2,8,4,6,1,5,1,0,0,1606.2173040979997,None,0,7,2,8,4,6,1,5,,1609.4961095509998,None,1609.4961095509998,None,1609.4961095509998,None,1609.4961095509998,None,1609.4961095509998,None,1609.4961095509998,None,1609.4961095509998,None,1609.4961095509998,None,1609.5760759969999,1610.0825493129996,1609.5760759969999,1610.0825493129996,1609.5760759969999,1610.0825493129996,None,None,left,1.1513740840000537,1609.5760759969999,None,None,None,z,0.18115581299935002,1610.8022918589995,None,1611.0155301260002,None,,1,0,1,,,,,109,32,2022_Sep_21_1336,templeton_exp2A_SD,2020.2.10,37.50657490254292,
,,,,,,,,,,,,,,,,,,,,,,119,0,119,0,,,,,,,,,,,,,,,,,,,,,,,,2.9000000000000004,1.6,2.9000000000000004,,,,,,,,,,,,,,,,,,,,,,,,,,,,,,,,,,,119,1593.8551858049996,4,8,1,6,0,7,3,5,0,0,1,1611.6019939859998,None,4,8,1,6,0,7,3,5,,1615.0672799919994,None,1615.0672799919994,None,1615.0672799919994,None,1615.0672799919994,None,1615.0672799919994,None,1615.0672799919994,None,1615.0672799919994,None,1615.0672799919994,None,1613.7611506659996,1614.267631136,1613.7611506659996,1614.267631136,1613.7611506659996,1614.267631136,None,None,left,3.132173691999924,1615.0672799919994,None,None,None,x,0.3813731350001035,1618.266115497,None,1618.6926148470002,None,,2,0,2,,,,,109,32,2022_Sep_21_1336,templeton_exp2A_SD,2020.2.10,37.50657490254292,
,,,,,,,,,,,,,,,,,,,,,,120,0,120,0,,,,,,,,,,,,,,,,,,,,,,,,1.5,1.6,2.1,,,,,,,,,,,,,,,,,,,,,,,,,,,,,,,,,,,120,1606.019673881,2,7,0,9,4,5,1,6,1,0,2,1623.7707166700002,None,2,7,0,9,4,5,1,6,,1625.849862223,None,1625.849862223,None,1625.849862223,None,1625.849862223,None,1625.849862223,None,1625.849862223,None,1625.849862223,None,1625.849862223,None,1625.9298792599993,1626.4362809610002,1625.9298792599993,1626.4362809610002,1625.9298792599993,1626.4362809610002,None,None,down,2.3655675449999762,1625.9298792599993,None,None,None,x,0.2758205039999666,1628.3556431219995,None,1628.6755096609995,None,,3,0,2,,,,,109,32,2022_Sep_21_1336,templeton_exp2A_SD,2020.2.10,37.50657490254292,
,,,,,,,,,,,,,,,,,,,,,,121,0,121,0,,,,,,,,,,,,,,,,,,,,,,,,3.3000000000000003,3.4000000000000004,3.9000000000000004,,,,,,,,,,,,,,,,,,,,,,,,,,,,,,,,,,,121,1611.5148031789995,2,7,1,6,3,8,4,9,1,0,4,1629.2619453870002,None,2,7,1,6,3,8,4,9,,1633.1271508089994,None,1633.1271508089994,None,1633.1271508089994,None,1633.1271508089994,None,1633.1271508089994,None,1633.1271508089994,None,1633.1271508089994,None,1633.1271508089994,None,1633.2337855119995,1633.7402063149993,1633.2337855119995,1633.7402063149993,1633.2337855119995,1633.7402063149993,None,None,left,1.4616642999999385,1633.2337855119995,None,None,None,z,0.19028219000028912,1634.7531716009998,None,1634.9930820239997,None,,4,0,2,,,,,109,32,2022_Sep_21_1336,templeton_exp2A_SD,2020.2.10,37.50657490254292,
,,,,,,,,,,,,,,,,,,,,,,122,0,122,0,,,,,,,,,,,,,,,,,,,,,,,,2.9000000000000004,1.6,2.9000000000000004,,,,,,,,,,,,,,,,,,,,,,,,,,,,,,,,,,,122,1617.8296189519997,2,5,0,6,4,8,3,9,0,1,3,1635.5662454989997,None,2,5,0,1,4,8,3,9,,1639.0182565989999,None,1639.0182565989999,None,1639.0182565989999,None,1639.0182565989999,None,1639.0182565989999,None,1639.0182565989999,None,1639.0182565989999,None,1639.0182565989999,None,1637.7120757769999,1638.218526656,1637.7120757769999,1638.218526656,1637.7120757769999,1638.218526656,None,None,left,1.5331999260006342,1639.0182565989999,None,None,None,z,0.26181204300064564,1640.6176533910002,None,1640.9108746599995,None,,5,1,3,,,,,109,32,2022_Sep_21_1336,templeton_exp2A_SD,2020.2.10,37.50657490254292,
,,,,,,,,,,,,,,,,,,,,,,123,0,123,0,,,,,,,,,,,,,,,,,,,,,,,,2.9000000000000004,1.6,2.9000000000000004,,,,,,,,,,,,,,,,,,,,,,,,,,,,,,,,,,,123,1623.7505459369995,1,9,0,8,4,7,2,6,0,0,1,1641.497269648,None,1,9,0,8,4,7,2,6,,1644.9626590419994,None,1644.9626590419994,None,1644.9626590419994,None,1644.9626590419994,None,1644.9626590419994,None,1644.9626590419994,None,1644.9626590419994,None,1644.9626590419994,None,1643.656407378,1644.1629246379998,1643.656407378,1644.1629246379998,1643.656407378,1644.1629246379998,None,None,left,0.8207931719998669,1644.9626590419994,None,None,None,z,0.18113192800046818,1645.8423260049994,None,1646.0555496469997,None,,6,1,4,,,,,109,32,2022_Sep_21_1336,templeton_exp2A_SD,2020.2.10,37.50657490254292,
,,,,,,,,,,,,,,,,,,,,,,124,0,124,0,,,,,,,,,,,,,,,,,,,,,,,,2.9000000000000004,1.6,2.9000000000000004,,,,,,,,,,,,,,,,,,,,,,,,,,,,,,,,,,,124,1628.894830837,2,6,1,8,3,9,0,7,0,1,0,1646.6419869089996,None,4,6,1,8,3,9,0,7,,1650.107379553,None,1650.107379553,None,1650.107379553,None,1650.107379553,None,1650.107379553,None,1650.107379553,None,1650.107379553,None,1650.107379553,None,1648.801219303,1649.3076142419995,1648.801219303,1649.3076142419995,1648.801219303,1649.3076142419995,None,None,left,0.8760713390001911,1650.107379553,None,None,None,z,0.1991267860003063,1651.0403561619996,None,1651.2802640299997,None,,7,2,5,,,,,109,32,2022_Sep_21_1336,templeton_exp2A_SD,2020.2.10,37.50657490254292,
,,,,,,,,,,,,,,,,,,,,,,125,0,125,0,,,,,,,,,,,,,,,,,,,,,,,,2.9000000000000004,1.6,2.9000000000000004,,,,,,,,,,,,,,,,,,,,,,,,,,,,,,,,,,,125,1634.119041078,3,8,1,5,2,6,0,7,0,0,1,1651.8667357200002,None,3,8,1,5,2,6,0,7,,1655.3320238239994,None,1655.3320238239994,None,1655.3320238239994,None,1655.3320238239994,None,1655.3320238239994,None,1655.3320238239994,None,1655.3320238239994,None,1655.3320238239994,None,1654.0259015499996,1654.532377763,1654.0259015499996,1654.532377763,1654.0259015499996,1654.532377763,None,None,left,6.363423211999361,1655.3320238239994,None,None,None,c,0.2751580929998454,1661.756306063,None,1662.0761380659997,None,,8,2,6,,,,,109,32,2022_Sep_21_1336,templeton_exp2A_SD,2020.2.10,37.50657490254292,
,,,,,,,,,,,,,,,,,,,,,,126,0,126,0,,,,,,,,,,,,,,,,,,,,,,,,2.5,2.6,3.1,,,,,,,,,,,,,,,,,,,,,,,,,,,,,,,,,,,126,1644.9157261149994,1,6,4,7,0,9,2,5,1,1,2,1662.6626207359996,None,1,6,3,7,0,9,2,5,,1665.7281330209998,None,1665.7281330209998,None,1665.7281330209998,None,1665.7281330209998,None,1665.7281330209998,None,1665.7281330209998,None,1665.7281330209998,None,1665.7281330209998,None,1665.8347149109995,1666.3411983509995,1665.8347149109995,1666.3411983509995,1665.8347149109995,1666.3411983509995,None,None,down,1.8367705199998454,1665.8347149109995,None,None,None,x,0.21608923699932348,1667.7273695499998,None,1667.9939410649995,None,,9,2,6,,,,,109,32,2022_Sep_21_1336,templeton_exp2A_SD,2020.2.10,37.50657490254292,
,,,,,,,,,,,,,,,,,,,,,,127,0,127,0,,,,,,,,,,,,,,,,,,,,,,,,3.5,3.6,4.1,,,,,,,,,,,,,,,,,,,,,,,,,,,,,,,,,,,127,1650.8313582029996,0,9,4,5,2,7,1,8,1,1,3,1668.5803879529994,None,0,9,4,3,2,7,1,8,,1672.6455208099997,None,1672.6455208099997,None,1672.6455208099997,None,1672.6455208099997,None,1672.6455208099997,None,1672.6455208099997,None,1672.6455208099997,None,1672.6455208099997,None,1672.7520797329998,1673.2586146939993,1672.7520797329998,1673.2586146939993,1672.7520797329998,1673.2586146939993,None,None,down,0.9753700050005136,1672.7520797329998,None,None,None,x,0.31173013399984484,1673.7917378949996,None,1674.1382761939994,None,,10,2,6,,,,,109,32,2022_Sep_21_1336,templeton_exp2A_SD,2020.2.10,37.50657490254292,
,,,,,,,,,,,,,,,,,,,,,,128,0,128,0,,,,,,,,,,,,,,,,,,,,,,,,2.9000000000000004,1.6,2.9000000000000004,,,,,,,,,,,,,,,,,,,,,,,,,,,,,,,,,,,128,1656.9763434779998,0,7,4,8,2,9,3,6,0,0,7,1674.7246935619996,None,0,7,4,8,2,9,3,6,,1678.1767488239993,None,1678.1767488239993,None,1678.1767488239993,None,1678.1767488239993,None,1678.1767488239993,None,1678.1767488239993,None,1678.1767488239993,None,1678.1767488239993,None,1676.8972252489993,1677.403656636,1676.8972252489993,1677.403656636,1676.8972252489993,1677.403656636,None,None,down,3.238708372000474,1678.1767488239993,None,None,None,x,0.18928148199938732,1681.4821727620001,None,1681.7220428949995,None,,11,3,7,,,,,109,32,2022_Sep_21_1336,templeton_exp2A_SD,2020.2.10,37.50657490254292,
,,,,,,,,,,,,,,,,,,,,,,129,0,129,0,,,,,,,,,,,,,,,,,,,,,,,,2.9000000000000004,1.6,2.9000000000000004,,,,,,,,,,,,,,,,,,,,,,,,,,,,,,,,,,,129,1664.5612566689997,3,6,0,9,1,7,2,5,0,1,0,1682.308473688,None,4,6,0,9,1,7,2,5,,1685.7738341939994,None,1685.7738341939994,None,1685.7738341939994,None,1685.7738341939994,None,1685.7738341939994,None,1685.7738341939994,None,1685.7738341939994,None,1685.7738341939994,None,1684.467655892,1684.9741815649995,1684.467655892,1684.9741815649995,1684.467655892,1684.9741815649995,None,None,left,2.16960274900066,1685.7738341939994,None,None,None,c,0.6984390269999494,1688.0130164049997,None,1688.759386916,None,,12,4,8,,,,,109,32,2022_Sep_21_1336,templeton_exp2A_SD,2020.2.10,37.50657490254292,
,,,,,,,,,,,,,,,,,,,,,,130,0,130,0,,,,,,,,,,,,,,,,,,,,,,,,2.9000000000000004,1.6,2.9000000000000004,,,,,,,,,,,,,,,,,,,,,,,,,,,,,,,,,,,130,1671.5957470579997,4,5,3,6,0,9,2,8,0,0,2,1689.3325122269998,None,4,5,3,6,0,9,2,8,,1692.7843585199998,None,1692.7843585199998,None,1692.7843585199998,None,1692.7843585199998,None,1692.7843585199998,None,1692.7843585199998,None,1692.7843585199998,None,1692.7843585199998,None,1691.4783733249997,1691.9848477649994,1691.4783733249997,1691.9848477649994,1691.4783733249997,1691.9848477649994,None,None,left,2.6230474210005923,1692.7843585199998,None,None,None,x,0.3146390470001279,1695.4768160459998,None,1695.8232924160002,None,,13,4,9,,,,,109,32,2022_Sep_21_1336,templeton_exp2A_SD,2020.2.10,37.50657490254292,
