trials_2.thisRepN,trials_2.thisTrialN,trials_2.thisN,trials_2.thisIndex,Used_image_1,Used_image_2,Used_image_3,Used_image_4,Used_image_5,Used_image_6,Used_image_7,Used_image_8,Unused_image_1,Unused_image_2,trials.thisRepN,trials.thisTrialN,trials.thisN,trials.thisIndex,trials_4.thisRepN,trials_4.thisTrialN,trials_4.thisN,trials_4.thisIndex,trials_10.thisRepN,trials_10.thisTrialN,trials_10.thisN,trials_10.thisIndex,welcome.started,welcome.stopped,pointer_dot_0.started,pointer_dot_0.stopped,pointer_dot_1.started,pointer_dot_1.stopped,pointer_dot_2.started,pointer_dot_2.stopped,SD_image.started,SD_image.stopped,memDisplayOnTimePractice,mem_image_0_practice,mem_image_1_practice,mem_image_2_practice,mem_image_3_practice,mem_image_4_practice,mem_image_5_practice,mem_image_6_practice,mem_image_7_practice,retention_interval_practice,retro_0_post_1_practice,change_or_no_practice,cue_location_practice,mem_display_to_test_array_duration_s,mem_display_to_cue_duration_s,routine_duration_s,array_image_1f.started,array_image_1f.stopped,array_image_2f.started,array_image_2f.stopped,array_image_3f.started,array_image_3f.stopped,array_image_4f.started,array_image_4f.stopped,array_image_5f.started,array_image_5f.stopped,array_image_6f.started,array_image_6f.stopped,array_image_7f.started,array_image_7f.stopped,array_image_8f.started,array_image_8f.stopped,pointer_dot_0b.started,pointer_dot_0b.stopped,pointer_dot_1b.started,pointer_dot_1b.stopped,pointer_dot_2b.started,pointer_dot_2b.stopped,sd_practice_resp.keys,sd_practice_resp.rt,sd_practice_resp.started,sd_practice_resp.stopped,text_10.started,text_10.stopped,conf_practice_resp.keys,conf_practice_resp.rt,conf_practice_resp.started,conf_practice_resp.stopped,image.started,image.stopped,training_trial_index,memDisplayOnTimeTraining,mem_image_0_training,mem_image_1_training,mem_image_2_training,mem_image_3_training,mem_image_4_training,mem_image_5_training,mem_image_6_training,mem_image_7_training,retro_0_post_1_training,change_or_no_training,cue_location_training,array_image_1l.started,array_image_1l.stopped,test_image_0_training,test_image_1_training,test_image_2_training,test_image_3_training,test_image_4_training,test_image_5_training,test_image_6_training,test_image_7_training,consecutive_correct_retro_short,array_image_1m.started,array_image_1m.stopped,array_image_2m.started,array_image_2m.stopped,array_image_3m.started,array_image_3m.stopped,array_image_4m.started,array_image_4m.stopped,array_image_5m.started,array_image_5m.stopped,array_image_6m.started,array_image_6m.stopped,array_image_7m.started,array_image_7m.stopped,array_image_8m.started,array_image_8m.stopped,pointer_dot_0d.started,pointer_dot_0d.stopped,pointer_dot_1d.started,pointer_dot_1d.stopped,pointer_dot_2d.started,pointer_dot_2d.stopped,reminder_training.started,reminder_training.stopped,sd_training_resp.keys,sd_training_resp.rt,sd_training_resp.started,sd_training_resp.stopped,text_15.started,text_15.stopped,conf_training_resp.keys,conf_training_resp.rt,conf_training_resp.started,conf_training_resp.stopped,text.started,text.stopped,short_interval_training_finished,training_trial_index_long_this_block,correct_retro_long_this_block,retro_trials_long_this_block,long_interval_block_finished,long_block_retro_acc,reached_criterion,run_out_of_trials,participant,mapping,date,expName,psychopyVersion,frameRate,
,,,,,,,,,,,,,,0,0,0,0,,,,,,,,,34.91226120200008,None,92.75698171100066,None,92.75698171100066,None,92.75698171100066,None,168.7282406410004,None,208.085433233,4,6,2,8,0,9,3,5,1.6,0,1,4,2.9000000000000004,1.6,2.9000000000000004,246.51209820300028,None,246.51209820300028,None,246.51209820300028,None,246.51209820300028,None,246.51209820300028,None,246.51209820300028,None,246.51209820300028,None,246.51209820300028,None,245.2192045110005,245.7256120510001,245.2192045110005,245.7256120510001,245.2192045110005,245.7256120510001,down,3.6071334759999445,246.51209820300028,None,250.1639771099999,None,x,17.43525311399935,250.1639771099999,None,250.1639771099999,None,,,,,,,,,,,,,,,,,,,,,,,,,,,,,,,,,,,,,,,,,,,,,,,,,,,,,,,,,,,,,,,,,,,,,107,32,2022_Sep_20_1505,templeton_exp2A_SD,2020.2.10,75.02565952575875,
,,,,,,,,,,,,,,1,0,1,0,,,,,,,,,,,,,,,,,,,242.9235897690005,3,8,0,9,4,7,1,5,1.6,0,0,3,2.9000000000000004,1.6,2.9000000000000004,281.3387698920005,None,281.3387698920005,None,281.3387698920005,None,281.3387698920005,None,281.3387698920005,None,281.3387698920005,None,281.3387698920005,None,281.3387698920005,None,280.03268066000055,280.5390908449999,280.03268066000055,280.5390908449999,280.03268066000055,280.5390908449999,down,8.868458287000067,281.3387698920005,None,290.24218775900044,None,c,1.021066319000056,290.24218775900044,None,290.24218775900044,None,,,,,,,,,,,,,,,,,,,,,,,,,,,,,,,,,,,,,,,,,,,,,,,,,,,,,,,,,,,,,,,,,,,,,107,32,2022_Sep_20_1505,templeton_exp2A_SD,2020.2.10,75.02565952575875,
,,,,,,,,,,,,,,2,0,2,0,,,,,,,,,,,,,,,,,,,272.44410126599996,3,7,1,5,2,9,4,8,1.6,1,0,1,1.5,1.6,2.1,309.4615830440007,None,309.4615830440007,None,309.4615830440007,None,309.4615830440007,None,309.4615830440007,None,309.4615830440007,None,309.4615830440007,None,309.4615830440007,None,309.5548138240001,310.06135978600014,309.5548138240001,310.06135978600014,309.5548138240001,310.06135978600014,left,2.492388474999643,309.5548138240001,None,312.060588497,None,x,2.4346844840001722,312.060588497,None,312.060588497,None,,,,,,,,,,,,,,,,,,,,,,,,,,,,,,,,,,,,,,,,,,,,,,,,,,,,,,,,,,,,,,,,,,,,,107,32,2022_Sep_20_1505,templeton_exp2A_SD,2020.2.10,75.02565952575875,
,,,,,,,,,,,,,,3,0,3,0,,,,,,,,,,,,,,,,,,,281.3350342120002,2,9,4,5,1,8,0,6,1.6,1,0,1,1.5,1.6,2.1,318.35151141999995,None,318.35151141999995,None,318.35151141999995,None,318.35151141999995,None,318.35151141999995,None,318.35151141999995,None,318.35151141999995,None,318.35151141999995,None,318.4447741390004,318.9512243570007,318.4447741390004,318.9512243570007,318.4447741390004,318.9512243570007,left,2.0024661400002515,318.4447741390004,None,320.4706131840003,None,x,0.9046425189999354,320.4706131840003,None,320.4706131840003,None,,,,,,,,,,,,,,,,,,,,,,,,,,,,,,,,,,,,,,,,,,,,,,,,,,,,,,,,,,,,,,,,,,,,,107,32,2022_Sep_20_1505,templeton_exp2A_SD,2020.2.10,75.02565952575875,
,,,,,,,,,,,,,,4,0,4,0,,,,,,,,,,,,,,,,,,,288.90701771100066,2,7,1,9,4,6,0,5,1.6,0,1,3,2.9000000000000004,1.6,2.9000000000000004,327.33475851000003,None,327.33475851000003,None,327.33475851000003,None,327.33475851000003,None,327.33475851000003,None,327.33475851000003,None,327.33475851000003,None,327.33475851000003,None,326.04195977700056,326.548395498,326.04195977700056,326.548395498,326.04195977700056,326.548395498,left,3.1045059939997373,327.33475851000003,None,330.45351909000055,None,z,1.0097194580002906,330.45351909000055,None,330.45351909000055,None,,,,,,,,,,,,,,,,,,,,,,,,,,,,,,,,,,,,,,,,,,,,,,,,,,,,,,,,,,,,,,,,,,,,,107,32,2022_Sep_20_1505,templeton_exp2A_SD,2020.2.10,75.02565952575875,
,,,,,,,,,,,,,,5,0,5,0,,,,,,,,,,,,,,,,,,,298.78188873,2,5,4,6,0,7,3,9,1.6,1,1,7,1.5,1.6,2.1,335.7982079150006,None,335.7982079150006,None,335.7982079150006,None,335.7982079150006,None,335.7982079150006,None,335.7982079150006,None,335.7982079150006,None,335.7982079150006,None,335.90487216900056,336.4113722060001,335.90487216900056,336.4113722060001,335.90487216900056,336.4113722060001,down,2.47036840400051,335.90487216900056,None,338.3972660210002,None,x,1.3939918179994493,338.3972660210002,None,338.3972660210002,None,,,,,,,,,,,,,,,,,,,,,,,,,,,,,,,,,,,,,,,,,,,,,,,,,,,,,,,,,,,,,,,,,,,,,107,32,2022_Sep_20_1505,templeton_exp2A_SD,2020.2.10,75.02565952575875,
,,,,,,,,,,,,,,6,0,6,0,,,,,,,,,,,,,,,,,,,307.8199167170005,2,7,3,6,1,5,0,8,1.6,1,1,1,1.5,1.6,2.1,344.848167311,None,344.848167311,None,344.848167311,None,344.848167311,None,344.848167311,None,344.848167311,None,344.848167311,None,344.848167311,None,344.94146145000013,345.4479053240002,344.94146145000013,345.4479053240002,344.94146145000013,345.4479053240002,down,1.7938254139999117,344.94146145000013,None,346.75403544100027,None,z,1.8612624730003517,346.75403544100027,None,346.75403544100027,None,,,,,,,,,,,,,,,,,,,,,,,,,,,,,,,,,,,,,,,,,,,,,,,,,,,,,,,,,,,,,,,,,,,,,107,32,2022_Sep_20_1505,templeton_exp2A_SD,2020.2.10,75.02565952575875,
,,,,,,,,,,,,,,,,,,,,,,0,0,0,0,,,,,,,,,,,,,,,,,,,,,,,,2.05,0.75,2.05,,,,,,,,,,,,,,,,,,,,,,,,,,,,,,,,,,,0,504.53955477,3,5,0,8,1,6,2,9,0,1,4,539.494448298,None,3,5,0,8,4,6,2,9,1,542.1200514390002,None,542.1200514390002,None,542.1200514390002,None,542.1200514390002,None,542.1200514390002,None,542.1200514390002,None,542.1200514390002,None,542.1200514390002,None,540.8139092210004,541.3202867520004,540.8139092210004,541.3202867520004,540.8139092210004,541.3202867520004,None,None,left,2.799084440000115,542.1200514390002,None,None,None,c,1.7017311879999397,544.9855282280005,None,546.7049578120004,None,,,,,,,,,107,32,2022_Sep_20_1505,templeton_exp2A_SD,2020.2.10,75.02565952575875,
,,,,,,,,,,,,,,,,,,,,,,1,0,1,0,,,,,,,,,,,,,,,,,,,,,,,,2.05,0.75,2.05,,,,,,,,,,,,,,,,,,,,,,,,,,,,,,,,,,,1,512.3337695670007,4,6,1,5,0,8,2,7,0,0,1,547.2914604450007,None,4,6,1,5,0,8,2,7,2,549.9170559170007,None,549.9170559170007,None,549.9170559170007,None,549.9170559170007,None,549.9170559170007,None,549.9170559170007,None,549.9170559170007,None,549.9170559170007,None,548.6108922310004,549.1174277150003,548.6108922310004,549.1174277150003,548.6108922310004,549.1174277150003,None,None,down,2.0260646729993823,549.9170559170007,None,None,None,x,8.074989482000092,551.9962196700008,None,560.08652016,None,,,,,,,,,107,32,2022_Sep_20_1505,templeton_exp2A_SD,2020.2.10,75.02565952575875,
,,,,,,,,,,,,,,,,,,,,,,2,0,2,0,,,,,,,,,,,,,,,,,,,,,,,,0.65,0.75,1.25,,,,,,,,,,,,,,,,,,,,,,,,,,,,,,,,,,,2,525.7140883720003,3,7,0,5,1,9,2,6,1,0,6,560.6730205610002,None,3,7,0,5,1,9,2,6,2,561.8991161120002,None,561.8991161120002,None,561.8991161120002,None,561.8991161120002,None,561.8991161120002,None,561.8991161120002,None,561.8991161120002,None,561.8991161120002,None,561.9925923370001,562.4990214750005,561.9925923370001,562.4990214750005,561.9925923370001,562.4990214750005,None,None,down,3.2626106560001062,561.9925923370001,None,None,None,z,0.9732549249993099,565.2978990870006,None,566.2975251440002,None,,,,,,,,,107,32,2022_Sep_20_1505,templeton_exp2A_SD,2020.2.10,75.02565952575875,
,,,,,,,,,,,,,,,,,,,,,,3,0,3,0,,,,,,,,,,,,,,,,,,,,,,,,0.65,0.75,1.25,,,,,,,,,,,,,,,,,,,,,,,,,,,,,,,,,,,3,531.9241396590005,0,9,4,5,3,7,1,8,1,1,3,566.8707275940005,None,0,9,4,2,3,7,1,8,2,568.0835546040007,None,568.0835546040007,None,568.0835546040007,None,568.0835546040007,None,568.0835546040007,None,568.0835546040007,None,568.0835546040007,None,568.0835546040007,None,568.1901247550004,568.6966264470002,568.1901247550004,568.6966264470002,568.1901247550004,568.6966264470002,None,None,down,1.929079688999991,568.1901247550004,None,None,None,z,0.7084064559994658,570.1628389360003,None,570.8958147000003,None,,,,,,,,,107,32,2022_Sep_20_1505,templeton_exp2A_SD,2020.2.10,75.02565952575875,
,,,,,,,,,,,,,,,,,,,,,,4,0,4,0,,,,,,,,,,,,,,,,,,,,,,,,2.05,0.75,2.05,,,,,,,,,,,,,,,,,,,,,,,,,,,,,,,,,,,4,536.5217323280003,4,5,2,9,1,6,3,8,0,0,2,571.4688589380003,None,4,5,2,9,1,6,3,8,0,574.0812492260002,None,574.0812492260002,None,574.0812492260002,None,574.0812492260002,None,574.0812492260002,None,574.0812492260002,None,574.0812492260002,None,574.0812492260002,None,572.7883843340005,573.2949385170004,572.7883843340005,573.2949385170004,572.7883843340005,573.2949385170004,None,None,left,1.6138871989996915,574.0812492260002,None,None,None,x,2.2120457490000263,575.7471908180005,None,577.9730685350005,None,,,,,,,,,107,32,2022_Sep_20_1505,templeton_exp2A_SD,2020.2.10,75.02565952575875,
,,,,,,,,,,,,,,,,,,,,,,5,0,5,0,,,,,,,,,,,,,,,,,,,,,,,,2.05,0.75,2.05,,,,,,,,,,,,,,,,,,,,,,,,,,,,,,,,,,,5,543.5984970940008,1,8,2,9,4,6,3,5,0,1,7,578.5461709740002,None,1,8,2,9,4,6,3,0,1,581.1585562360005,None,581.1585562360005,None,581.1585562360005,None,581.1585562360005,None,581.1585562360005,None,581.1585562360005,None,581.1585562360005,None,581.1585562360005,None,579.8657290260007,580.3721461100004,579.8657290260007,580.3721461100004,579.8657290260007,580.3721461100004,None,None,left,7.84067520500048,581.1585562360005,None,None,None,x,1.3184001420004279,589.0488768380001,None,590.3817476110007,None,,,,,,,,,107,32,2022_Sep_20_1505,templeton_exp2A_SD,2020.2.10,75.02565952575875,
,,,,,,,,,,,,,,,,,,,,,,6,0,6,0,,,,,,,,,,,,,,,,,,,,,,,,0.65,0.75,1.25,,,,,,,,,,,,,,,,,,,,,,,,,,,,,,,,,,,6,556.0079776570001,0,5,1,6,4,9,2,8,1,1,3,590.9548371690007,None,0,5,1,3,4,9,2,8,1,592.167722573,None,592.167722573,None,592.167722573,None,592.167722573,None,592.167722573,None,592.167722573,None,592.167722573,None,592.167722573,None,592.2610953990006,592.7675912130007,592.2610953990006,592.7675912130007,592.2610953990006,592.7675912130007,None,None,down,1.4021038669998234,592.2610953990006,None,None,None,z,1.9095189010004106,593.7137260939999,None,595.6463751880001,None,,,,,,,,,107,32,2022_Sep_20_1505,templeton_exp2A_SD,2020.2.10,75.02565952575875,
,,,,,,,,,,,,,,,,,,,,,,7,0,7,0,,,,,,,,,,,,,,,,,,,,,,,,0.65,0.75,1.25,,,,,,,,,,,,,,,,,,,,,,,,,,,,,,,,,,,7,561.2712709130001,0,5,4,9,3,7,2,8,1,1,6,596.2195768270003,None,0,5,4,9,3,7,1,8,1,597.4323949070003,None,597.4323949070003,None,597.4323949070003,None,597.4323949070003,None,597.4323949070003,None,597.4323949070003,None,597.4323949070003,None,597.4323949070003,None,597.5390060990003,598.0455709450007,597.5390060990003,598.0455709450007,597.5390060990003,598.0455709450007,None,None,down,1.5962319100008244,597.5390060990003,None,None,None,z,1.036918725999385,599.1784106620007,None,600.2313632780006,None,,,,,,,,,107,32,2022_Sep_20_1505,templeton_exp2A_SD,2020.2.10,75.02565952575875,
,,,,,,,,,,,,,,,,,,,,,,8,0,8,0,,,,,,,,,,,,,,,,,,,,,,,,2.05,0.75,2.05,,,,,,,,,,,,,,,,,,,,,,,,,,,,,,,,,,,8,565.8573071970004,3,5,1,9,0,7,4,8,0,0,2,600.8044209310001,None,3,5,1,9,0,7,4,8,2,603.4168228389999,None,603.4168228389999,None,603.4168228389999,None,603.4168228389999,None,603.4168228389999,None,603.4168228389999,None,603.4168228389999,None,603.4168228389999,None,602.1240290240003,602.6304351810004,602.1240290240003,602.6304351810004,602.1240290240003,602.6304351810004,None,None,down,1.1743821190002564,603.4168228389999,None,None,None,z,2.020296251000218,604.6429625620003,None,606.6822471730002,None,,,,,,,,,107,32,2022_Sep_20_1505,templeton_exp2A_SD,2020.2.10,75.02565952575875,
,,,,,,,,,,,,,,,,,,,,,,9,0,9,0,,,,,,,,,,,,,,,,,,,,,,,,0.65,0.75,1.25,,,,,,,,,,,,,,,,,,,,,,,,,,,,,,,,,,,9,572.309413043,4,5,3,7,0,8,2,6,1,0,2,607.2687567870007,None,4,5,3,7,0,8,2,6,2,608.4948661900007,None,608.4948661900007,None,608.4948661900007,None,608.4948661900007,None,608.4948661900007,None,608.4948661900007,None,608.4948661900007,None,608.4948661900007,None,608.5881761560004,609.0947171820007,608.5881761560004,609.0947171820007,608.5881761560004,609.0947171820007,None,None,down,1.243061907000083,608.5881761560004,None,None,None,z,2.398235091999595,609.8810714710007,None,612.2934009740002,None,,,,,,,,,107,32,2022_Sep_20_1505,templeton_exp2A_SD,2020.2.10,75.02565952575875,
,,,,,,,,,,,,,,,,,,,,,,10,0,10,0,,,,,,,,,,,,,,,,,,,,,,,,2.05,0.75,2.05,,,,,,,,,,,,,,,,,,,,,,,,,,,,,,,,,,,10,577.9222429250003,0,7,4,8,1,6,2,9,0,1,6,612.8798822100007,None,0,7,4,8,1,6,3,9,3,615.492264511,None,615.492264511,None,615.492264511,None,615.492264511,None,615.492264511,None,615.492264511,None,615.492264511,None,615.492264511,None,614.199376388,614.7058098590005,614.199376388,614.7058098590005,614.199376388,614.7058098590005,None,None,left,4.242963011000029,615.492264511,None,None,None,x,1.5752885140000217,619.7839613030001,None,621.3833520400003,None,,,,,,,,,107,32,2022_Sep_20_1505,templeton_exp2A_SD,2020.2.10,75.02565952575875,
,,,,,,,,,,,,,,,,,,,,,,11,0,11,0,,,,,,,,,,,,,,,,,,,,,,,,0.65,0.75,1.25,,,,,,,,,,,,,,,,,,,,,,,,,,,,,,,,,,,11,587.0098535380002,1,8,0,9,3,6,2,5,1,1,4,621.9563923350006,None,1,8,0,9,4,6,2,5,3,623.1692696580003,None,623.1692696580003,None,623.1692696580003,None,623.1692696580003,None,623.1692696580003,None,623.1692696580003,None,623.1692696580003,None,623.1692696580003,None,623.2760490930004,623.7824897810005,623.2760490930004,623.7824897810005,623.2760490930004,623.7824897810005,None,None,down,1.859199806000106,623.2760490930004,None,None,None,z,2.321270454000114,625.1819675820007,None,627.5276773570004,None,,,,,,,,,107,32,2022_Sep_20_1505,templeton_exp2A_SD,2020.2.10,75.02565952575875,
,,,,,,,,,,,,,,,,,,,,,,12,0,12,0,,,,,,,,,,,,,,,,,,,,,,,,2.05,0.75,2.05,,,,,,,,,,,,,,,,,,,,,,,,,,,,,,,,,,,12,593.1564579880005,4,7,0,5,1,6,2,9,0,0,0,628.1140824439999,None,4,7,0,5,1,6,2,9,4,630.7397361390003,None,630.7397361390003,None,630.7397361390003,None,630.7397361390003,None,630.7397361390003,None,630.7397361390003,None,630.7397361390003,None,630.7397361390003,None,629.433563779,629.9401500350004,629.433563779,629.9401500350004,629.433563779,629.9401500350004,None,None,down,2.771466496999892,630.7397361390003,None,None,None,x,2.1031428680007593,633.5520686079999,None,635.6713567420002,None,,,,,,,,,107,32,2022_Sep_20_1505,templeton_exp2A_SD,2020.2.10,75.02565952575875,
,,,,,,,,,,,,,,,,,,,,,,13,0,13,0,,,,,,,,,,,,,,,,,,,,,,,,0.65,0.75,1.25,,,,,,,,,,,,,,,,,,,,,,,,,,,,,,,,,,,13,601.2978736820005,4,5,3,6,0,8,1,9,1,1,0,636.2576817500003,None,2,5,3,6,0,8,1,9,4,637.4706266110006,None,637.4706266110006,None,637.4706266110006,None,637.4706266110006,None,637.4706266110006,None,637.4706266110006,None,637.4706266110006,None,637.4706266110006,None,637.5772873340002,638.0836244770007,637.5772873340002,638.0836244770007,637.5772873340002,638.0836244770007,None,None,down,3.237890938000419,637.5772873340002,None,None,None,z,1.0712873009997566,640.8559596519999,None,641.9488803210006,None,,,,,,,,,107,32,2022_Sep_20_1505,templeton_exp2A_SD,2020.2.10,75.02565952575875,
,,,,,,,,,,,,,,,,,,,,,,14,0,14,0,,,,,,,,,,,,,,,,,,,,,,,,2.05,0.75,2.05,,,,,,,,,,,,,,,,,,,,,,,,,,,,,,,,,,,14,607.5759823070002,4,7,2,9,1,5,3,6,0,0,0,642.5353206400005,None,4,7,2,9,1,5,3,6,5,645.1610840170006,None,645.1610840170006,None,645.1610840170006,None,645.1610840170006,None,645.1610840170006,None,645.1610840170006,None,645.1610840170006,None,645.1610840170006,None,643.8547792110003,644.3612940740004,643.8547792110003,644.3612940740004,643.8547792110003,644.3612940740004,None,None,down,1.918206798999563,645.1610840170006,None,None,None,z,1.0069605850003427,647.120294411,None,648.1464868749999,None,,,,,,,,,107,32,2022_Sep_20_1505,templeton_exp2A_SD,2020.2.10,75.02565952575875,
,,,,,,,,,,,,,,,,,,,,,,15,0,15,0,,,,,,,,,,,,,,,,,,,,,,,,2.05,0.75,2.05,,,,,,,,,,,,,,,,,,,,,,,,,,,,,,,,,,,15,632.7475948260007,4,9,2,8,3,5,1,6,0,1,5,667.6991284040005,None,4,9,2,8,3,0,1,6,0,670.3248516570002,None,670.3248516570002,None,670.3248516570002,None,670.3248516570002,None,670.3248516570002,None,670.3248516570002,None,670.3248516570002,None,670.3248516570002,None,669.0186292020007,669.5251508330002,669.0186292020007,669.5251508330002,669.0186292020007,669.5251508330002,None,None,down,1.962378319999516,670.3248516570002,None,None,None,z,1.0699810659998548,672.3372684690003,None,673.4302528980006,None,,,,,,,,,107,32,2022_Sep_20_1505,templeton_exp2A_SD,2020.2.10,75.02565952575875,
,,,,,,,,,,,,,,,,,,,,,,16,0,16,0,,,,,,,,,,,,,,,,,,,,,,,,0.65,0.75,1.25,,,,,,,,,,,,,,,,,,,,,,,,,,,,,,,,,,,16,639.0549994210005,4,8,2,7,0,5,3,9,1,0,0,674.0033417490004,None,4,8,2,7,0,5,3,9,0,675.2162609420002,None,675.2162609420002,None,675.2162609420002,None,675.2162609420002,None,675.2162609420002,None,675.2162609420002,None,675.2162609420002,None,675.2162609420002,None,675.3095794870005,675.8161003230007,675.3095794870005,675.8161003230007,675.3095794870005,675.8161003230007,None,None,down,1.0656586650002282,675.3095794870005,None,None,None,z,0.86348484500013,676.4157702560005,None,677.2954249150007,None,,,,,,,,,107,32,2022_Sep_20_1505,templeton_exp2A_SD,2020.2.10,75.02565952575875,
,,,,,,,,,,,,,,,,,,,,,,17,0,17,0,,,,,,,,,,,,,,,,,,,,,,,,2.05,0.75,2.05,,,,,,,,,,,,,,,,,,,,,,,,,,,,,,,,,,,17,642.9209910330001,4,6,1,8,2,5,3,9,0,0,7,677.8685561420007,None,4,6,1,8,2,5,3,9,0,680.4808640190004,None,680.4808640190004,None,680.4808640190004,None,680.4808640190004,None,680.4808640190004,None,680.4808640190004,None,680.4808640190004,None,680.4808640190004,None,679.1880060150006,679.6944712780005,679.1880060150006,679.6944712780005,679.1880060150006,679.6944712780005,None,None,left,1.5184760820002339,680.4808640190004,None,None,None,x,0.9429855050002516,682.0403301599999,None,682.9999859260006,None,,,,,,,,,107,32,2022_Sep_20_1505,templeton_exp2A_SD,2020.2.10,75.02565952575875,
,,,,,,,,,,,,,,,,,,,,,,18,0,18,0,,,,,,,,,,,,,,,,,,,,,,,,2.05,0.75,2.05,,,,,,,,,,,,,,,,,,,,,,,,,,,,,,,,,,,18,648.6284576150001,1,8,2,5,4,7,0,6,0,0,0,683.5863735470002,None,1,8,2,5,4,7,0,6,1,686.2121015910006,None,686.2121015910006,None,686.2121015910006,None,686.2121015910006,None,686.2121015910006,None,686.2121015910006,None,686.2121015910006,None,686.2121015910006,None,684.9059565530006,685.4123666040005,684.9059565530006,685.4123666040005,684.9059565530006,685.4123666040005,None,None,down,1.2431282480001755,686.2121015910006,None,None,None,z,1.19024409100075,687.5050012400006,None,688.7177542720001,None,,,,,,,,,107,32,2022_Sep_20_1505,templeton_exp2A_SD,2020.2.10,75.02565952575875,
,,,,,,,,,,,,,,,,,,,,,,19,0,19,0,,,,,,,,,,,,,,,,,,,,,,,,0.65,0.75,1.25,,,,,,,,,,,,,,,,,,,,,,,,,,,,,,,,,,,19,654.3442593680002,0,8,2,7,1,9,4,5,1,0,0,689.2909677100006,None,0,8,2,7,1,9,4,5,1,690.5038149689999,None,690.5038149689999,None,690.5038149689999,None,690.5038149689999,None,690.5038149689999,None,690.5038149689999,None,690.5038149689999,None,690.5038149689999,None,690.6104314920003,691.1169404070006,690.6104314920003,691.1169404070006,690.6104314920003,691.1169404070006,None,None,down,2.2688095910007178,690.6104314920003,None,None,None,z,1.5817627759997777,692.9294786690007,None,694.5289540520007,None,,,,,,,,,107,32,2022_Sep_20_1505,templeton_exp2A_SD,2020.2.10,75.02565952575875,
,,,,,,,,,,,,,,,,,,,,,,20,0,20,0,,,,,,,,,,,,,,,,,,,,,,,,2.05,0.75,2.05,,,,,,,,,,,,,,,,,,,,,,,,,,,,,,,,,,,20,660.1574467720002,4,8,0,7,1,5,2,6,0,1,6,695.1154002339999,None,4,8,0,7,1,5,3,6,0,697.7410499430007,None,697.7410499430007,None,697.7410499430007,None,697.7410499430007,None,697.7410499430007,None,697.7410499430007,None,697.7410499430007,None,697.7410499430007,None,696.4482844390004,696.9546484940001,696.4482844390004,696.9546484940001,696.4482844390004,696.9546484940001,None,None,down,2.4501777589994163,697.7410499430007,None,None,None,x,2.3658392559991626,700.2334160540004,None,702.6192089270007,None,,,,,,,,,107,32,2022_Sep_20_1505,templeton_exp2A_SD,2020.2.10,75.02565952575875,
,,,,,,,,,,,,,,,,,,,,,,21,0,21,0,,,,,,,,,,,,,,,,,,,,,,,,0.65,0.75,1.25,,,,,,,,,,,,,,,,,,,,,,,,,,,,,,,,,,,21,668.2468648370004,2,5,1,6,4,8,3,7,1,0,7,703.2057108400004,None,2,5,1,6,4,8,3,7,0,704.431935175,None,704.431935175,None,704.431935175,None,704.431935175,None,704.431935175,None,704.431935175,None,704.431935175,None,704.431935175,None,704.5252220950006,705.0316333340006,704.5252220950006,705.0316333340006,704.5252220950006,705.0316333340006,None,None,down,3.145926538999447,704.5252220950006,None,None,None,z,0.8673099819998242,707.723913199,None,708.616919567,None,,,,,,,,,107,32,2022_Sep_20_1505,templeton_exp2A_SD,2020.2.10,75.02565952575875,
,,,,,,,,,,,,,,,,,,,,,,22,0,22,0,,,,,,,,,,,,,,,,,,,,,,,,0.65,0.75,1.25,,,,,,,,,,,,,,,,,,,,,,,,,,,,,,,,,,,22,674.2458838160001,4,7,1,6,0,9,3,8,1,0,5,709.2033798660004,None,4,7,1,6,0,9,3,8,0,710.4296408090004,None,710.4296408090004,None,710.4296408090004,None,710.4296408090004,None,710.4296408090004,None,710.4296408090004,None,710.4296408090004,None,710.4296408090004,None,710.5362400070007,711.042674327,710.5362400070007,711.042674327,710.5362400070007,711.042674327,None,None,down,1.9909978460000275,710.5362400070007,None,None,None,z,0.9197249700000611,712.5754286910005,None,713.5083827870003,None,,,,,,,,,107,32,2022_Sep_20_1505,templeton_exp2A_SD,2020.2.10,75.02565952575875,
,,,,,,,,,,,,,,,,,,,,,,23,0,23,0,,,,,,,,,,,,,,,,,,,,,,,,0.65,0.75,1.25,,,,,,,,,,,,,,,,,,,,,,,,,,,,,,,,,,,23,679.1337909190006,4,9,2,7,1,5,3,8,1,0,6,714.0814898940007,None,4,9,2,7,1,5,3,8,0,715.294407331,None,715.294407331,None,715.294407331,None,715.294407331,None,715.294407331,None,715.294407331,None,715.294407331,None,715.294407331,None,715.4009617660004,715.907508452,715.4009617660004,715.907508452,715.4009617660004,715.907508452,None,None,down,1.2622871590001523,715.4009617660004,None,None,None,z,1.0359827689999292,716.707275578,None,717.7601379570006,None,,,,,,,,,107,32,2022_Sep_20_1505,templeton_exp2A_SD,2020.2.10,75.02565952575875,
,,,,,,,,,,,,,,,,,,,,,,24,0,24,0,,,,,,,,,,,,,,,,,,,,,,,,2.05,0.75,2.05,,,,,,,,,,,,,,,,,,,,,,,,,,,,,,,,,,,24,683.3886730970007,1,9,4,7,2,8,0,6,0,0,6,718.3465722790006,None,1,9,4,7,2,8,0,6,1,720.9723350430004,None,720.9723350430004,None,720.9723350430004,None,720.9723350430004,None,720.9723350430004,None,720.9723350430004,None,720.9723350430004,None,720.9723350430004,None,719.6794405230003,720.1858308390001,719.6794405230003,720.1858308390001,719.6794405230003,720.1858308390001,None,None,down,1.4988935619994663,720.9723350430004,None,None,None,z,1.5368189990003884,722.5184251930004,None,724.0777540830004,None,,,,,,,,,107,32,2022_Sep_20_1505,templeton_exp2A_SD,2020.2.10,75.02565952575875,
,,,,,,,,,,,,,,,,,,,,,,25,0,25,0,,,,,,,,,,,,,,,,,,,,,,,,2.05,0.75,2.05,,,,,,,,,,,,,,,,,,,,,,,,,,,,,,,,,,,25,689.704570328,2,6,0,7,3,8,4,9,0,1,6,724.6642408329999,None,2,6,0,7,3,8,1,9,2,727.2898209069999,None,727.2898209069999,None,727.2898209069999,None,727.2898209069999,None,727.2898209069999,None,727.2898209069999,None,727.2898209069999,None,727.2898209069999,None,725.9837597160003,726.4901922060008,725.9837597160003,726.4901922060008,725.9837597160003,726.4901922060008,None,None,left,1.0933172039995043,727.2898209069999,None,None,None,z,0.7311767680002959,728.4361111830003,None,729.182441467,None,,,,,,,,,107,32,2022_Sep_20_1505,templeton_exp2A_SD,2020.2.10,75.02565952575875,
,,,,,,,,,,,,,,,,,,,,,,26,0,26,0,,,,,,,,,,,,,,,,,,,,,,,,0.65,0.75,1.25,,,,,,,,,,,,,,,,,,,,,,,,,,,,,,,,,,,26,694.8113556100006,3,6,1,8,4,5,0,7,1,0,7,729.7688567989999,None,3,6,1,8,4,5,0,7,2,730.995190568,None,730.995190568,None,730.995190568,None,730.995190568,None,730.995190568,None,730.995190568,None,730.995190568,None,730.995190568,None,731.1017253180007,731.608218886,731.1017253180007,731.608218886,731.1017253180007,731.608218886,None,None,down,1.9695128049997948,731.1017253180007,None,None,None,z,0.8369825810004841,733.1142585180005,None,733.9673174250001,None,,,,,,,,,107,32,2022_Sep_20_1505,templeton_exp2A_SD,2020.2.10,75.02565952575875,
,,,,,,,,,,,,,,,,,,,,,,27,0,27,0,,,,,,,,,,,,,,,,,,,,,,,,0.65,0.75,1.25,,,,,,,,,,,,,,,,,,,,,,,,,,,,,,,,,,,27,699.5950474850006,3,6,0,9,2,7,4,8,1,0,7,734.5537128470005,None,3,6,0,9,2,7,4,8,2,735.7799728070004,None,735.7799728070004,None,735.7799728070004,None,735.7799728070004,None,735.7799728070004,None,735.7799728070004,None,735.7799728070004,None,735.7799728070004,None,735.8732149970001,736.3798051940003,735.8732149970001,736.3798051940003,735.8732149970001,736.3798051940003,None,None,down,1.6460349259996292,735.8732149970001,None,None,None,x,0.9853640789997371,737.5659974240007,None,738.5655951540002,None,,,,,,,,,107,32,2022_Sep_20_1505,templeton_exp2A_SD,2020.2.10,75.02565952575875,
,,,,,,,,,,,,,,,,,,,,,,28,0,28,0,,,,,,,,,,,,,,,,,,,,,,,,2.05,0.75,2.05,,,,,,,,,,,,,,,,,,,,,,,,,,,,,,,,,,,28,704.1904092450004,3,9,4,6,0,5,2,8,0,0,2,739.1386532860006,None,3,9,4,6,0,5,2,8,0,741.7510374020003,None,741.7510374020003,None,741.7510374020003,None,741.7510374020003,None,741.7510374020003,None,741.7510374020003,None,741.7510374020003,None,741.7510374020003,None,740.4583026360006,740.9646905590007,740.4583026360006,740.9646905590007,740.4583026360006,740.9646905590007,None,None,left,3.704196894999768,741.7510374020003,None,None,None,x,1.038962341000115,745.4962795190004,None,746.5492580290002,None,,,,,,,,,107,32,2022_Sep_20_1505,templeton_exp2A_SD,2020.2.10,75.02565952575875,
,,,,,,,,,,,,,,,,,,,,,,29,0,29,0,,,,,,,,,,,,,,,,,,,,,,,,0.65,0.75,1.25,,,,,,,,,,,,,,,,,,,,,,,,,,,,,,,,,,,29,712.1762150070008,3,5,2,8,0,7,4,6,1,1,2,747.1356428730005,None,3,5,1,8,0,7,4,6,0,748.3618090800001,None,748.3618090800001,None,748.3618090800001,None,748.3618090800001,None,748.3618090800001,None,748.3618090800001,None,748.3618090800001,None,748.3618090800001,None,748.4685920490001,748.9750951010001,748.4685920490001,748.9750951010001,748.4685920490001,748.9750951010001,None,None,down,1.490655276000325,748.4685920490001,None,None,None,z,0.6620475619993158,750.0012093590003,None,750.6809648140006,None,,,,,,,,,107,32,2022_Sep_20_1505,templeton_exp2A_SD,2020.2.10,75.02565952575875,
,,,,,,,,,,,,,,,,,,,,,,30,0,30,0,,,,,,,,,,,,,,,,,,,,,,,,0.65,0.75,1.25,,,,,,,,,,,,,,,,,,,,,,,,,,,,,,,,,,,30,729.7007560780003,3,7,4,8,1,5,0,6,1,1,3,764.6624387709999,None,3,7,4,2,1,5,0,6,0,765.8885525290007,None,765.8885525290007,None,765.8885525290007,None,765.8885525290007,None,765.8885525290007,None,765.8885525290007,None,765.8885525290007,None,765.8885525290007,None,765.981932791,766.4883238290004,765.981932791,766.4883238290004,765.981932791,766.4883238290004,None,None,down,1.6893052670002362,765.981932791,None,None,None,z,0.43661204,767.7146036650001,None,768.1676583300004,None,,,,,,,,,107,32,2022_Sep_20_1505,templeton_exp2A_SD,2020.2.10,75.02565952575875,
,,,,,,,,,,,,,,,,,,,,,,31,0,31,0,,,,,,,,,,,,,,,,,,,,,,,,2.05,0.75,2.05,,,,,,,,,,,,,,,,,,,,,,,,,,,,,,,,,,,31,733.7954366050008,3,8,4,6,2,9,1,7,0,0,4,768.754112521,None,3,8,4,6,2,9,1,7,1,771.379952921,None,771.379952921,None,771.379952921,None,771.379952921,None,771.379952921,None,771.379952921,None,771.379952921,None,771.379952921,None,770.0736200450001,770.5801217970002,770.0736200450001,770.5801217970002,770.0736200450001,770.5801217970002,None,None,down,1.4912752410000394,771.379952921,None,None,None,z,0.7827362150001136,772.9125118390002,None,773.7122800860006,None,,,,,,,,,107,32,2022_Sep_20_1505,templeton_exp2A_SD,2020.2.10,75.02565952575875,
,,,,,,,,,,,,,,,,,,,,,,32,0,32,0,,,,,,,,,,,,,,,,,,,,,,,,0.65,0.75,1.25,,,,,,,,,,,,,,,,,,,,,,,,,,,,,,,,,,,32,739.3387125460004,3,5,1,6,4,8,0,9,1,1,1,774.2987090020006,None,3,2,1,6,4,8,0,9,1,775.5116450390005,None,775.5116450390005,None,775.5116450390005,None,775.5116450390005,None,775.5116450390005,None,775.5116450390005,None,775.5116450390005,None,775.5116450390005,None,775.6181347390002,776.1247454970007,775.6181347390002,776.1247454970007,775.6181347390002,776.1247454970007,None,None,down,2.1891017980005927,775.6181347390002,None,None,None,x,0.3499233930006085,777.8573201770005,None,778.2305144680004,None,,,,,,,,,107,32,2022_Sep_20_1505,templeton_exp2A_SD,2020.2.10,75.02565952575875,
,,,,,,,,,,,,,,,,,,,,,,33,0,33,0,,,,,,,,,,,,,,,,,,,,,,,,0.65,0.75,1.25,,,,,,,,,,,,,,,,,,,,,,,,,,,,,,,,,,,33,743.8574900840003,4,6,1,9,0,8,2,5,1,0,3,778.8170126630002,None,4,6,1,9,0,8,2,5,1,780.02985902,None,780.02985902,None,780.02985902,None,780.02985902,None,780.02985902,None,780.02985902,None,780.02985902,None,780.02985902,None,780.1364738150005,780.6429069400001,780.1364738150005,780.6429069400001,780.1364738150005,780.6429069400001,None,None,down,6.142774014000679,780.1364738150005,None,None,None,x,2.0143134489999284,786.3208937720001,None,788.360011367,None,,,,,,,,,107,32,2022_Sep_20_1505,templeton_exp2A_SD,2020.2.10,75.02565952575875,
,,,,,,,,,,,,,,,,,,,,,,34,0,34,0,,,,,,,,,,,,,,,,,,,,,,,,0.65,0.75,1.25,,,,,,,,,,,,,,,,,,,,,,,,,,,,,,,,,,,34,753.9883196740002,1,6,4,9,0,8,2,7,1,1,2,788.9465681280008,None,1,6,3,9,0,8,2,7,1,790.1727080800001,None,790.1727080800001,None,790.1727080800001,None,790.1727080800001,None,790.1727080800001,None,790.1727080800001,None,790.1727080800001,None,790.1727080800001,None,790.265902788,790.7725301350001,790.265902788,790.7725301350001,790.265902788,790.7725301350001,None,None,left,2.7493355290007457,790.265902788,None,None,None,x,1.6622874389995559,793.0649651419999,None,794.7442549090001,None,,,,,,,,,107,32,2022_Sep_20_1505,templeton_exp2A_SD,2020.2.10,75.02565952575875,
,,,,,,,,,,,,,,,,,,,,,,35,0,35,0,,,,,,,,,,,,,,,,,,,,,,,,0.65,0.75,1.25,,,,,,,,,,,,,,,,,,,,,,,,,,,,,,,,,,,35,760.3730146920007,0,7,2,6,4,5,1,9,1,0,1,795.3307901779999,None,0,7,2,6,4,5,1,9,1,796.5570045090008,None,796.5570045090008,None,796.5570045090008,None,796.5570045090008,None,796.5570045090008,None,796.5570045090008,None,796.5570045090008,None,796.5570045090008,None,796.6502273340002,797.1567240430004,796.6502273340002,797.1567240430004,796.6502273340002,797.1567240430004,None,None,down,1.4610207789992273,796.6502273340002,None,None,None,z,0.6268210999996882,798.156333287,None,798.8094258199999,None,,,,,,,,,107,32,2022_Sep_20_1505,templeton_exp2A_SD,2020.2.10,75.02565952575875,
,,,,,,,,,,,,,,,,,,,,,,36,0,36,0,,,,,,,,,,,,,,,,,,,,,,,,2.05,0.75,2.05,,,,,,,,,,,,,,,,,,,,,,,,,,,,,,,,,,,36,764.4356361939999,2,8,1,9,3,7,0,5,0,1,3,799.3824879920003,None,2,8,1,4,3,7,0,5,2,801.9948798670002,None,801.9948798670002,None,801.9948798670002,None,801.9948798670002,None,801.9948798670002,None,801.9948798670002,None,801.9948798670002,None,801.9948798670002,None,800.7020770490008,801.208578541,800.7020770490008,801.208578541,800.7020770490008,801.208578541,None,None,left,1.9643519979999837,801.9948798670002,None,None,None,x,1.3278955850000784,804.007411345,None,805.3536068850008,None,,,,,,,,,107,32,2022_Sep_20_1505,templeton_exp2A_SD,2020.2.10,75.02565952575875,
,,,,,,,,,,,,,,,,,,,,,,37,0,37,0,,,,,,,,,,,,,,,,,,,,,,,,2.05,0.75,2.05,,,,,,,,,,,,,,,,,,,,,,,,,,,,,,,,,,,37,770.9820522830005,1,6,3,7,2,8,0,9,0,1,2,805.9401172390008,None,1,6,4,7,2,8,0,9,3,808.5657610560002,None,808.5657610560002,None,808.5657610560002,None,808.5657610560002,None,808.5657610560002,None,808.5657610560002,None,808.5657610560002,None,808.5657610560002,None,807.2729147110003,807.7793198620002,807.2729147110003,807.7793198620002,807.2729147110003,807.7793198620002,None,None,left,1.8814841139992495,808.5657610560002,None,None,None,x,1.5089884879998863,810.4982576390003,None,812.0311062600003,None,,,,,,,,,107,32,2022_Sep_20_1505,templeton_exp2A_SD,2020.2.10,75.02565952575875,
,,,,,,,,,,,,,,,,,,,,,,38,0,38,0,,,,,,,,,,,,,,,,,,,,,,,,2.05,0.75,2.05,,,,,,,,,,,,,,,,,,,,,,,,,,,,,,,,,,,38,777.6570348570003,0,8,2,7,3,5,1,9,0,0,1,812.6042236420008,None,0,8,2,7,3,5,1,9,0,815.2164635140007,None,815.2164635140007,None,815.2164635140007,None,815.2164635140007,None,815.2164635140007,None,815.2164635140007,None,815.2164635140007,None,815.2164635140007,None,813.9236886830004,814.430186222,813.9236886830004,814.430186222,813.9236886830004,814.430186222,None,None,left,1.2467793249998067,815.2164635140007,None,None,None,z,0.8338699400001133,816.5093859230001,None,817.3623636580005,None,,,,,,,,,107,32,2022_Sep_20_1505,templeton_exp2A_SD,2020.2.10,75.02565952575875,
,,,,,,,,,,,,,,,,,,,,,,39,0,39,0,,,,,,,,,,,,,,,,,,,,,,,,2.05,0.75,2.05,,,,,,,,,,,,,,,,,,,,,,,,,,,,,,,,,,,39,782.9876382420007,2,6,4,9,0,8,3,5,0,1,5,817.9355073380002,None,2,6,4,9,0,1,3,5,1,820.5479136800004,None,820.5479136800004,None,820.5479136800004,None,820.5479136800004,None,820.5479136800004,None,820.5479136800004,None,820.5479136800004,None,820.5479136800004,None,819.2549724099999,819.7615571330007,819.2549724099999,819.7615571330007,819.2549724099999,819.7615571330007,None,None,left,2.939317305000259,820.5479136800004,None,None,None,c,0.9058973559995138,823.5333468710005,None,824.4530025970007,None,,,,,,,,,107,32,2022_Sep_20_1505,templeton_exp2A_SD,2020.2.10,75.02565952575875,
,,,,,,,,,,,,,,,,,,,,,,40,0,40,0,,,,,,,,,,,,,,,,,,,,,,,,2.05,0.75,2.05,,,,,,,,,,,,,,,,,,,,,,,,,,,,,,,,,,,40,790.0806819019999,3,8,2,6,1,7,4,5,0,1,7,825.0394929620006,None,3,8,2,6,1,7,4,0,2,827.6652739460005,None,827.6652739460005,None,827.6652739460005,None,827.6652739460005,None,827.6652739460005,None,827.6652739460005,None,827.6652739460005,None,827.6652739460005,None,826.3589709560001,826.8654805330007,826.3589709560001,826.8654805330007,826.3589709560001,826.8654805330007,None,None,left,3.829956878000303,827.6652739460005,None,None,None,z,1.631593021000299,831.5436548710004,None,833.1964199720005,None,,,,,,,,,107,32,2022_Sep_20_1505,templeton_exp2A_SD,2020.2.10,75.02565952575875,
,,,,,,,,,,,,,,,,,,,,,,41,0,41,0,,,,,,,,,,,,,,,,,,,,,,,,0.65,0.75,1.25,,,,,,,,,,,,,,,,,,,,,,,,,,,,,,,,,,,41,798.8248966560004,0,8,1,7,3,6,4,9,1,1,0,833.7829107719999,None,2,8,1,7,3,6,4,9,2,835.0090554580001,None,835.0090554580001,None,835.0090554580001,None,835.0090554580001,None,835.0090554580001,None,835.0090554580001,None,835.0090554580001,None,835.0090554580001,None,835.1023498370005,835.6089131400004,835.1023498370005,835.6089131400004,835.1023498370005,835.6089131400004,None,None,down,1.5208633359998203,835.1023498370005,None,None,None,z,0.9562337389997992,836.6750240760002,None,837.6480804590001,None,,,,,,,,,107,32,2022_Sep_20_1505,templeton_exp2A_SD,2020.2.10,75.02565952575875,
,,,,,,,,,,,,,,,,,,,,,,42,0,42,0,,,,,,,,,,,,,,,,,,,,,,,,2.05,0.75,2.05,,,,,,,,,,,,,,,,,,,,,,,,,,,,,,,,,,,42,803.2751590650005,0,5,2,7,3,6,4,8,0,0,6,838.2345158710004,None,0,5,2,7,3,6,4,8,3,840.8602321260005,None,840.8602321260005,None,840.8602321260005,None,840.8602321260005,None,840.8602321260005,None,840.8602321260005,None,840.8602321260005,None,840.8602321260005,None,839.5539973170007,840.0605234720006,839.5539973170007,840.0605234720006,839.5539973170007,840.0605234720006,None,None,down,3.114993768000204,840.8602321260005,None,None,None,x,1.7963191410008221,844.018971689,None,845.8316124390003,None,,,,,,,,,107,32,2022_Sep_20_1505,templeton_exp2A_SD,2020.2.10,75.02565952575875,
,,,,,,,,,,,,,,,,,,,,,,43,0,43,0,,,,,,,,,,,,,,,,,,,,,,,,2.05,0.75,2.05,,,,,,,,,,,,,,,,,,,,,,,,,,,,,,,,,,,43,811.4584192689999,2,7,0,8,3,5,4,6,0,1,5,846.4181097520004,None,2,7,0,8,3,1,4,6,0,849.043796168,None,849.043796168,None,849.043796168,None,849.043796168,None,849.043796168,None,849.043796168,None,849.043796168,None,849.043796168,None,847.7375928420006,848.2440974179999,847.7375928420006,848.2440974179999,847.7375928420006,848.2440974179999,None,None,down,2.4114522629997737,849.043796168,None,None,None,x,1.5350484410000718,851.4961961570007,None,853.0554749420007,None,,,,,,,,,107,32,2022_Sep_20_1505,templeton_exp2A_SD,2020.2.10,75.02565952575875,
,,,,,,,,,,,,,,,,,,,,,,44,0,44,0,,,,,,,,,,,,,,,,,,,,,,,,0.65,0.75,1.25,,,,,,,,,,,,,,,,,,,,,,,,,,,,,,,,,,,44,818.7013547250008,3,8,2,6,0,5,1,9,1,0,6,853.6553883340002,None,3,8,2,6,0,5,1,9,0,854.8681130929999,None,854.8681130929999,None,854.8681130929999,None,854.8681130929999,None,854.8681130929999,None,854.8681130929999,None,854.8681130929999,None,854.8681130929999,None,854.9748614460004,855.4813535490002,854.9748614460004,855.4813535490002,854.9748614460004,855.4813535490002,None,None,down,1.2563777659997868,854.9748614460004,None,None,None,z,1.5023454579995814,856.2809567660006,None,857.8004353050001,None,,,,,,,,,107,32,2022_Sep_20_1505,templeton_exp2A_SD,2020.2.10,75.02565952575875,
,,,,,,,,,,,,,,,,,,,,,,45,0,45,0,,,,,,,,,,,,,,,,,,,,,,,,0.65,0.75,1.25,,,,,,,,,,,,,,,,,,,,,,,,,,,,,,,,,,,45,831.9128575840004,1,7,3,9,0,5,2,8,1,0,0,866.8636505570003,None,1,7,3,9,0,5,2,8,0,868.0765059700007,None,868.0765059700007,None,868.0765059700007,None,868.0765059700007,None,868.0765059700007,None,868.0765059700007,None,868.0765059700007,None,868.0765059700007,None,868.1831324670002,868.6897203799999,868.1831324670002,868.6897203799999,868.1831324670002,868.6897203799999,None,None,down,1.0081174929991903,868.1831324670002,None,None,None,z,1.0512000469998384,869.2360501950006,None,870.3023579230003,None,,,,,,,,,107,32,2022_Sep_20_1505,templeton_exp2A_SD,2020.2.10,75.02565952575875,
,,,,,,,,,,,,,,,,,,,,,,46,0,46,0,,,,,,,,,,,,,,,,,,,,,,,,0.65,0.75,1.25,,,,,,,,,,,,,,,,,,,,,,,,,,,,,,,,,,,46,835.9281766860004,0,6,2,8,4,5,3,9,1,1,3,870.8754163720005,None,0,6,2,1,4,5,3,9,0,872.0883070310001,None,872.0883070310001,None,872.0883070310001,None,872.0883070310001,None,872.0883070310001,None,872.0883070310001,None,872.0883070310001,None,872.0883070310001,None,872.1949341120007,872.7014585080005,872.1949341120007,872.7014585080005,872.1949341120007,872.7014585080005,None,None,down,6.468211590999999,872.1949341120007,None,None,None,z,1.3906903189999866,878.7125574150004,None,880.1253002960002,None,,,,,,,,,107,32,2022_Sep_20_1505,templeton_exp2A_SD,2020.2.10,75.02565952575875,
,,,,,,,,,,,,,,,,,,,,,,47,0,47,0,,,,,,,,,,,,,,,,,,,,,,,,0.65,0.75,1.25,,,,,,,,,,,,,,,,,,,,,,,,,,,,,,,,,,,47,845.7533563970001,1,7,3,8,2,9,4,6,1,1,2,880.7117223040004,None,1,7,0,8,2,9,4,6,0,881.9378892519999,None,881.9378892519999,None,881.9378892519999,None,881.9378892519999,None,881.9378892519999,None,881.9378892519999,None,881.9378892519999,None,881.9378892519999,None,882.0445468510006,882.5510450460006,882.0445468510006,882.5510450460006,882.0445468510006,882.5510450460006,None,None,down,1.8186894840000605,882.0445468510006,None,None,None,z,0.9207338040005197,883.9104981290002,None,884.856826747,None,,,,,,,,,107,32,2022_Sep_20_1505,templeton_exp2A_SD,2020.2.10,75.02565952575875,
,,,,,,,,,,,,,,,,,,,,,,48,0,48,0,,,,,,,,,,,,,,,,,,,,,,,,2.05,0.75,2.05,,,,,,,,,,,,,,,,,,,,,,,,,,,,,,,,,,,48,850.4836492970007,4,7,0,6,2,8,3,9,0,1,5,885.4433357160005,None,4,7,0,6,2,1,3,9,1,888.0689128240001,None,888.0689128240001,None,888.0689128240001,None,888.0689128240001,None,888.0689128240001,None,888.0689128240001,None,888.0689128240001,None,888.0689128240001,None,886.7627577080002,887.2691791940006,886.7627577080002,887.2691791940006,886.7627577080002,887.2691791940006,None,None,left,1.6983377930000643,888.0689128240001,None,None,None,x,1.096203091999996,889.8150400320001,None,890.9345386640007,None,,,,,,,,,107,32,2022_Sep_20_1505,templeton_exp2A_SD,2020.2.10,75.02565952575875,
,,,,,,,,,,,,,,,,,,,,,,49,0,49,0,,,,,,,,,,,,,,,,,,,,,,,,2.05,0.75,2.05,,,,,,,,,,,,,,,,,,,,,,,,,,,,,,,,,,,49,856.5612067930006,1,8,4,7,0,5,2,9,0,0,4,891.5209262790004,None,1,8,4,7,0,5,2,9,0,894.1333069890006,None,894.1333069890006,None,894.1333069890006,None,894.1333069890006,None,894.1333069890006,None,894.1333069890006,None,894.1333069890006,None,894.1333069890006,None,892.8404685740006,893.3469460810002,892.8404685740006,893.3469460810002,892.8404685740006,893.3469460810002,None,None,left,3.505830925000737,894.1333069890006,None,None,None,x,1.547299765000389,897.6919250050005,None,899.2646685130003,None,,,,,,,,,107,32,2022_Sep_20_1505,templeton_exp2A_SD,2020.2.10,75.02565952575875,
,,,,,,,,,,,,,,,,,,,,,,50,0,50,0,,,,,,,,,,,,,,,,,,,,,,,,2.05,0.75,2.05,,,,,,,,,,,,,,,,,,,,,,,,,,,,,,,,,,,50,864.9465982780002,4,6,0,9,1,7,2,5,0,1,7,899.9044478020005,None,4,6,0,9,1,7,2,3,1,902.5301740260002,None,902.5301740260002,None,902.5301740260002,None,902.5301740260002,None,902.5301740260002,None,902.5301740260002,None,902.5301740260002,None,902.5301740260002,None,901.223939728,901.7304380000005,901.223939728,901.7304380000005,901.223939728,901.7304380000005,None,None,left,2.772965672000282,902.5301740260002,None,None,None,z,0.7796317399997861,905.3556993360007,None,906.1553723060006,None,,,,,,,,,107,32,2022_Sep_20_1505,templeton_exp2A_SD,2020.2.10,75.02565952575875,
,,,,,,,,,,,,,,,,,,,,,,51,0,51,0,,,,,,,,,,,,,,,,,,,,,,,,0.65,0.75,1.25,,,,,,,,,,,,,,,,,,,,,,,,,,,,,,,,,,,51,871.7824252970004,2,8,4,9,0,6,1,5,1,0,4,906.7418568310004,None,2,8,4,9,0,6,1,5,1,907.9680378880003,None,907.9680378880003,None,907.9680378880003,None,907.9680378880003,None,907.9680378880003,None,907.9680378880003,None,907.9680378880003,None,907.9680378880003,None,908.0613557720008,908.5677617450001,908.0613557720008,908.5677617450001,908.0613557720008,908.5677617450001,None,None,down,1.521888145000048,908.0613557720008,None,None,None,z,1.6052357880007548,909.6340205840006,None,911.2601600500002,None,,,,,,,,,107,32,2022_Sep_20_1505,templeton_exp2A_SD,2020.2.10,75.02565952575875,
,,,,,,,,,,,,,,,,,,,,,,52,0,52,0,,,,,,,,,,,,,,,,,,,,,,,,0.65,0.75,1.25,,,,,,,,,,,,,,,,,,,,,,,,,,,,,,,,,,,52,876.8887523180001,0,9,4,7,3,8,1,6,1,1,7,911.8465866420001,None,0,9,4,7,3,8,1,2,1,913.0594622140006,None,913.0594622140006,None,913.0594622140006,None,913.0594622140006,None,913.0594622140006,None,913.0594622140006,None,913.0594622140006,None,913.0594622140006,None,913.1661059320004,913.672625745,913.1661059320004,913.672625745,913.1661059320004,913.672625745,None,None,down,1.905105760000879,913.1661059320004,None,None,None,z,0.5992027969996343,915.1120359900005,None,915.7250715590008,None,,,,,,,,,107,32,2022_Sep_20_1505,templeton_exp2A_SD,2020.2.10,75.02565952575875,
,,,,,,,,,,,,,,,,,,,,,,53,0,53,0,,,,,,,,,,,,,,,,,,,,,,,,0.65,0.75,1.25,,,,,,,,,,,,,,,,,,,,,,,,,,,,,,,,,,,53,881.3523503670003,4,9,0,7,2,6,3,8,1,1,6,916.311466137,None,4,9,0,7,2,6,1,8,1,917.5377217670002,None,917.5377217670002,None,917.5377217670002,None,917.5377217670002,None,917.5377217670002,None,917.5377217670002,None,917.5377217670002,None,917.5377217670002,None,917.6443914669999,918.1509510530004,917.6443914669999,918.1509510530004,917.6443914669999,918.1509510530004,None,None,down,1.3548608279998007,917.6443914669999,None,None,None,z,1.219368250000116,919.0438874620004,None,920.2833326170003,None,,,,,,,,,107,32,2022_Sep_20_1505,templeton_exp2A_SD,2020.2.10,75.02565952575875,
,,,,,,,,,,,,,,,,,,,,,,54,0,54,0,,,,,,,,,,,,,,,,,,,,,,,,2.05,0.75,2.05,,,,,,,,,,,,,,,,,,,,,,,,,,,,,,,,,,,54,885.9119772990007,0,8,1,7,4,6,2,5,0,1,2,920.8698032270004,None,0,8,3,7,4,6,2,5,2,923.4955229960005,None,923.4955229960005,None,923.4955229960005,None,923.4955229960005,None,923.4955229960005,None,923.4955229960005,None,923.4955229960005,None,923.4955229960005,None,922.1893161160006,922.6958224740001,922.1893161160006,922.6958224740001,922.1893161160006,922.6958224740001,None,None,left,1.551704772999983,923.4955229960005,None,None,None,z,0.9122456499999316,925.095008792,None,926.0278471900001,None,,,,,,,,,107,32,2022_Sep_20_1505,templeton_exp2A_SD,2020.2.10,75.02565952575875,
,,,,,,,,,,,,,,,,,,,,,,55,0,55,0,,,,,,,,,,,,,,,,,,,,,,,,0.65,0.75,1.25,,,,,,,,,,,,,,,,,,,,,,,,,,,,,,,,,,,55,891.6543661040005,2,5,0,9,1,6,3,8,1,0,0,926.6143903729999,None,2,5,0,9,1,6,3,8,2,927.8405823270004,None,927.8405823270004,None,927.8405823270004,None,927.8405823270004,None,927.8405823270004,None,927.8405823270004,None,927.8405823270004,None,927.8405823270004,None,927.9338237870006,928.4403305280002,927.9338237870006,928.4403305280002,927.9338237870006,928.4403305280002,None,None,down,2.417374331999781,927.9338237870006,None,None,None,x,3.759647492000113,930.3995773850002,None,934.1847826620005,None,,,,,,,,,107,32,2022_Sep_20_1505,templeton_exp2A_SD,2020.2.10,75.02565952575875,
,,,,,,,,,,,,,,,,,,,,,,56,0,56,0,,,,,,,,,,,,,,,,,,,,,,,,2.05,0.75,2.05,,,,,,,,,,,,,,,,,,,,,,,,,,,,,,,,,,,56,899.8124941390006,1,6,4,7,2,9,3,8,0,1,3,934.7712189530002,None,1,6,4,0,2,9,3,8,3,937.3836668210006,None,937.3836668210006,None,937.3836668210006,None,937.3836668210006,None,937.3836668210006,None,937.3836668210006,None,937.3836668210006,None,937.3836668210006,None,936.0906795230003,936.5972095980005,936.0906795230003,936.5972095980005,936.0906795230003,936.5972095980005,None,None,left,3.94350244799989,937.3836668210006,None,None,None,z,1.4385698199994295,941.3687164880002,None,942.8215474880008,None,,,,,,,,,107,32,2022_Sep_20_1505,templeton_exp2A_SD,2020.2.10,75.02565952575875,
,,,,,,,,,,,,,,,,,,,,,,57,0,57,0,,,,,,,,,,,,,,,,,,,,,,,,2.05,0.75,2.05,,,,,,,,,,,,,,,,,,,,,,,,,,,,,,,,,,,57,908.4473020720006,4,7,3,5,2,8,1,9,0,0,3,943.3946387410006,None,4,7,3,5,2,8,1,9,4,946.0069506620002,None,946.0069506620002,None,946.0069506620002,None,946.0069506620002,None,946.0069506620002,None,946.0069506620002,None,946.0069506620002,None,946.0069506620002,None,944.7141457010002,945.2206607340004,944.7141457010002,945.2206607340004,944.7141457010002,945.2206607340004,None,None,down,3.1283235670007343,946.0069506620002,None,None,None,z,0.852303380000194,949.1790292350006,None,950.0454195090006,None,,,,,,,,,107,32,2022_Sep_20_1505,templeton_exp2A_SD,2020.2.10,75.02565952575875,
,,,,,,,,,,,,,,,,,,,,,,58,0,58,0,,,,,,,,,,,,,,,,,,,,,,,,2.05,0.75,2.05,,,,,,,,,,,,,,,,,,,,,,,,,,,,,,,,,,,58,915.6734464690007,3,9,2,5,0,6,1,7,0,1,7,950.6318855280006,None,3,9,2,5,0,6,1,4,5,953.2442889829999,None,953.2442889829999,None,953.2442889829999,None,953.2442889829999,None,953.2442889829999,None,953.2442889829999,None,953.2442889829999,None,953.2442889829999,None,951.9514187250006,952.457874486,951.9514187250006,952.457874486,951.9514187250006,952.457874486,None,None,left,3.562836918999892,953.2442889829999,None,None,None,z,0.8631852010003058,956.856067699,None,957.7358394890007,None,,,,,,,,,107,32,2022_Sep_20_1505,templeton_exp2A_SD,2020.2.10,75.02565952575875,
,,,,,,,,,,,,,,,,,,,,,,59,0,59,0,,,,,,,,,,,,,,,,,,,,,,,,0.65,0.75,1.25,,,,,,,,,,,,,,,,,,,,,,,,,,,,,,,,,,,59,923.3645798980006,4,9,2,6,0,5,1,7,1,0,5,958.3222844010006,None,4,9,2,6,0,5,1,7,5,959.5485990690004,None,959.5485990690004,None,959.5485990690004,None,959.5485990690004,None,959.5485990690004,None,959.5485990690004,None,959.5485990690004,None,959.5485990690004,None,959.6417704860005,960.1482930239999,959.6417704860005,960.1482930239999,959.6417704860005,960.1482930239999,None,None,down,2.021483155000169,959.6417704860005,None,None,None,x,1.195553103999373,961.7077033240002,None,962.9205308170003,None,,,,,,,,,107,32,2022_Sep_20_1505,templeton_exp2A_SD,2020.2.10,75.02565952575875,
,,,,,,,,,,,,,,,,,,,,,,60,0,60,0,,,,,,,,,,,,,,,,,,,,,,,,0.65,0.75,1.25,,,,,,,,,,,,,,,,,,,,,,,,,,,,,,,,,,,60,946.1087021190006,4,9,1,8,3,7,2,5,1,0,0,981.0603735290006,None,4,9,1,8,3,7,2,5,5,982.2732788399999,None,982.2732788399999,None,982.2732788399999,None,982.2732788399999,None,982.2732788399999,None,982.2732788399999,None,982.2732788399999,None,982.2732788399999,None,982.379800873,982.8863325810007,982.379800873,982.8863325810007,982.379800873,982.8863325810007,None,None,down,1.131449908999457,982.379800873,None,None,None,z,0.8304540239996641,983.5527907420001,None,984.4057265050005,None,,,,,,,,,107,32,2022_Sep_20_1505,templeton_exp2A_SD,2020.2.10,75.02565952575875,
,,,,,,,,,,,,,,,,,,,,,,61,0,61,0,,,,,,,,,,,,,,,,,,,,,,,,2.05,0.75,2.05,,,,,,,,,,,,,,,,,,,,,,,,,,,,,,,,,,,61,950.0336786329999,2,6,1,7,3,8,4,5,0,0,7,984.9922004800001,None,2,6,1,7,3,8,4,5,0,987.6178902720003,None,987.6178902720003,None,987.6178902720003,None,987.6178902720003,None,987.6178902720003,None,987.6178902720003,None,987.6178902720003,None,987.6178902720003,None,986.3116769010003,986.8180593350007,986.3116769010003,986.8180593350007,986.3116769010003,986.8180593350007,None,None,left,1.6853423030006525,987.6178902720003,None,None,None,x,0.824729398999807,989.350512424,None,990.1902087660001,None,,,,,,,,,107,32,2022_Sep_20_1505,templeton_exp2A_SD,2020.2.10,75.02565952575875,
,,,,,,,,,,,,,,,,,,,,,,62,0,62,0,,,,,,,,,,,,,,,,,,,,,,,,0.65,0.75,1.25,,,,,,,,,,,,,,,,,,,,,,,,,,,,,,,,,,,62,955.8184571150005,4,9,1,5,0,7,2,6,1,0,5,990.7766052320003,None,4,9,1,5,0,7,2,6,0,992.0028238300001,None,992.0028238300001,None,992.0028238300001,None,992.0028238300001,None,992.0028238300001,None,992.0028238300001,None,992.0028238300001,None,992.0028238300001,None,992.109517029,992.6159838130006,992.109517029,992.6159838130006,992.109517029,992.6159838130006,None,None,down,1.7777263220004897,992.109517029,None,None,None,x,0.9038108700005978,993.9354484810001,None,994.8551118840005,None,,,,,,,,,107,32,2022_Sep_20_1505,templeton_exp2A_SD,2020.2.10,75.02565952575875,
,,,,,,,,,,,,,,,,,,,,,,63,0,63,0,,,,,,,,,,,,,,,,,,,,,,,,0.65,0.75,1.25,,,,,,,,,,,,,,,,,,,,,,,,,,,,,,,,,,,63,960.4831235669999,2,7,0,6,3,9,1,8,1,1,7,995.4416694370002,None,2,7,0,6,3,9,1,4,0,996.6678018810007,None,996.6678018810007,None,996.6678018810007,None,996.6678018810007,None,996.6678018810007,None,996.6678018810007,None,996.6678018810007,None,996.6678018810007,None,996.7610791740008,997.2675061540003,996.7610791740008,997.2675061540003,996.7610791740008,997.2675061540003,None,None,down,1.5181937979996292,996.7610791740008,None,None,None,z,0.6468083529998694,998.3204933699999,None,998.9869342290003,None,,,,,,,,,107,32,2022_Sep_20_1505,templeton_exp2A_SD,2020.2.10,75.02565952575875,
,,,,,,,,,,,,,,,,,,,,,,64,0,64,0,,,,,,,,,,,,,,,,,,,,,,,,2.05,0.75,2.05,,,,,,,,,,,,,,,,,,,,,,,,,,,,,,,,,,,64,964.6151501479999,3,6,1,7,2,8,0,9,0,1,2,999.5733749159999,None,3,6,4,7,2,8,0,9,1,1002.199098649,None,1002.199098649,None,1002.199098649,None,1002.199098649,None,1002.199098649,None,1002.199098649,None,1002.199098649,None,1002.199098649,None,1000.8928592279999,1001.3993203850005,1000.8928592279999,1001.3993203850005,1000.8928592279999,1001.3993203850005,None,None,left,2.1041266229995017,1002.199098649,None,None,None,z,0.8382766119993903,1004.3449808820005,None,1005.197901433,None,,,,,,,,,107,32,2022_Sep_20_1505,templeton_exp2A_SD,2020.2.10,75.02565952575875,
,,,,,,,,,,,,,,,,,,,,,,65,0,65,0,,,,,,,,,,,,,,,,,,,,,,,,2.05,0.75,2.05,,,,,,,,,,,,,,,,,,,,,,,,,,,,,,,,,,,65,970.8264773020001,1,5,0,7,4,6,2,9,0,0,4,1005.7843221540006,None,1,5,0,7,4,6,2,9,0,1008.4099949500005,None,1008.4099949500005,None,1008.4099949500005,None,1008.4099949500005,None,1008.4099949500005,None,1008.4099949500005,None,1008.4099949500005,None,1008.4099949500005,None,1007.1170754150007,1007.6235876630008,1007.1170754150007,1007.6235876630008,1007.1170754150007,1007.6235876630008,1016.3669367279999,None,left,8.6692343349996,1008.4099949500005,None,None,None,x,1.0725323480000952,1017.1267251570007,None,1018.2196657600007,None,,,,,,,,,107,32,2022_Sep_20_1505,templeton_exp2A_SD,2020.2.10,75.02565952575875,
,,,,,,,,,,,,,,,,,,,,,,66,0,66,0,,,,,,,,,,,,,,,,,,,,,,,,2.05,0.75,2.05,,,,,,,,,,,,,,,,,,,,,,,,,,,,,,,,,,,66,983.8479535890001,3,5,1,8,4,6,0,7,0,1,3,1018.8060541160003,None,3,5,1,2,4,6,0,7,0,1021.4316892750003,None,1021.4316892750003,None,1021.4316892750003,None,1021.4316892750003,None,1021.4316892750003,None,1021.4316892750003,None,1021.4316892750003,None,1021.4316892750003,None,1020.1256653,1020.6320950420004,1020.1256653,1020.6320950420004,1020.1256653,1020.6320950420004,None,None,down,2.599450200999854,1021.4316892750003,None,None,None,x,3.2992063880001297,1024.0840502740002,None,1027.4027614100005,None,,,,,,,,,107,32,2022_Sep_20_1505,templeton_exp2A_SD,2020.2.10,75.02565952575875,
,,,,,,,,,,,,,,,,,,,,,,67,0,67,0,,,,,,,,,,,,,,,,,,,,,,,,2.05,0.75,2.05,,,,,,,,,,,,,,,,,,,,,,,,,,,,,,,,,,,67,993.0293708900008,4,8,0,9,1,5,2,7,0,0,3,1027.989235782,None,4,8,0,9,1,5,2,7,1,1030.601629494,None,1030.601629494,None,1030.601629494,None,1030.601629494,None,1030.601629494,None,1030.601629494,None,1030.601629494,None,1030.601629494,None,1029.3087534780007,1029.815236552,1029.3087534780007,1029.815236552,1029.3087534780007,1029.815236552,None,None,down,3.3255932880001637,1030.601629494,None,None,None,x,2.2015379569993456,1033.9737094880002,None,1036.199423266,None,,,,,,,,,107,32,2022_Sep_20_1505,templeton_exp2A_SD,2020.2.10,75.02565952575875,
,,,,,,,,,,,,,,,,,,,,,,68,0,68,0,,,,,,,,,,,,,,,,,,,,,,,,0.65,0.75,1.25,,,,,,,,,,,,,,,,,,,,,,,,,,,,,,,,,,,68,1001.8276116780007,2,7,1,8,0,5,3,6,1,1,0,1036.785893716,None,4,7,1,8,0,5,3,6,1,1038.012182902,None,1038.012182902,None,1038.012182902,None,1038.012182902,None,1038.012182902,None,1038.012182902,None,1038.012182902,None,1038.012182902,None,1038.1187363010004,1038.6252277840003,1038.1187363010004,1038.6252277840003,1038.1187363010004,1038.6252277840003,None,None,down,2.4404187170002842,1038.1187363010004,None,None,None,z,1.4441843919994426,1040.6110733040005,None,1042.0772042550007,None,,,,,,,,,107,32,2022_Sep_20_1505,templeton_exp2A_SD,2020.2.10,75.02565952575875,
,,,,,,,,,,,,,,,,,,,,,,69,0,69,0,,,,,,,,,,,,,,,,,,,,,,,,0.65,0.75,1.25,,,,,,,,,,,,,,,,,,,,,,,,,,,,,,,,,,,69,1007.7034806740003,0,7,1,5,2,9,3,8,1,0,7,1042.6503541820002,None,0,7,1,5,2,9,3,8,1,1043.8632444210007,None,1043.8632444210007,None,1043.8632444210007,None,1043.8632444210007,None,1043.8632444210007,None,1043.8632444210007,None,1043.8632444210007,None,1043.8632444210007,None,1043.969812464,1044.4763989130006,1043.969812464,1044.4763989130006,1043.969812464,1044.4763989130006,None,None,down,2.3254266419999112,1043.969812464,None,None,None,z,1.360975812000106,1046.3422998780006,None,1047.7284535130002,None,,,,,,,,,107,32,2022_Sep_20_1505,templeton_exp2A_SD,2020.2.10,75.02565952575875,
,,,,,,,,,,,,,,,,,,,,,,70,0,70,0,,,,,,,,,,,,,,,,,,,,,,,,2.05,0.75,2.05,,,,,,,,,,,,,,,,,,,,,,,,,,,,,,,,,,,70,1013.3553128420008,0,8,2,9,1,5,4,6,0,1,5,1048.3149347240005,None,0,8,2,9,1,3,4,6,2,1050.9273294590002,None,1050.9273294590002,None,1050.9273294590002,None,1050.9273294590002,None,1050.9273294590002,None,1050.9273294590002,None,1050.9273294590002,None,1050.9273294590002,None,1049.6343673620004,1050.1408520080004,1049.6343673620004,1050.1408520080004,1049.6343673620004,1050.1408520080004,None,None,left,1.4159001869993517,1050.9273294590002,None,None,None,x,1.5179914559994359,1052.3932632770002,None,1053.9260836130006,None,,,,,,,,,107,32,2022_Sep_20_1505,templeton_exp2A_SD,2020.2.10,75.02565952575875,
,,,,,,,,,,,,,,,,,,,,,,71,0,71,0,,,,,,,,,,,,,,,,,,,,,,,,0.65,0.75,1.25,,,,,,,,,,,,,,,,,,,,,,,,,,,,,,,,,,,71,1019.5522364590006,3,7,0,5,2,8,1,9,1,0,0,1054.499223576,None,3,7,0,5,2,8,1,9,2,1055.7121403770007,None,1055.7121403770007,None,1055.7121403770007,None,1055.7121403770007,None,1055.7121403770007,None,1055.7121403770007,None,1055.7121403770007,None,1055.7121403770007,None,1055.8187146110004,1056.325171908,1055.8187146110004,1056.325171908,1055.8187146110004,1056.325171908,None,None,down,1.116524009999921,1055.8187146110004,None,None,None,z,1.1969821109996701,1056.9782739050006,None,1058.191086918,None,,,,,,,,,107,32,2022_Sep_20_1505,templeton_exp2A_SD,2020.2.10,75.02565952575875,
,,,,,,,,,,,,,,,,,,,,,,72,0,72,0,,,,,,,,,,,,,,,,,,,,,,,,0.65,0.75,1.25,,,,,,,,,,,,,,,,,,,,,,,,,,,,,,,,,,,72,1023.8184676589999,2,8,1,6,3,7,4,9,1,0,7,1058.7775061190005,None,2,8,1,6,3,7,4,9,2,1060.0037094070003,None,1060.0037094070003,None,1060.0037094070003,None,1060.0037094070003,None,1060.0037094070003,None,1060.0037094070003,None,1060.0037094070003,None,1060.0037094070003,None,1060.0971268780004,1060.6035410640006,1060.0971268780004,1060.6035410640006,1060.0971268780004,1060.6035410640006,None,None,down,1.2140119199993933,1060.0971268780004,None,None,None,z,1.0040615010002512,1061.3631832,None,1062.3895736210006,None,,,,,,,,,107,32,2022_Sep_20_1505,templeton_exp2A_SD,2020.2.10,75.02565952575875,
,,,,,,,,,,,,,,,,,,,,,,73,0,73,0,,,,,,,,,,,,,,,,,,,,,,,,0.65,0.75,1.25,,,,,,,,,,,,,,,,,,,,,,,,,,,,,,,,,,,73,1028.015535765,3,9,1,5,4,8,0,7,1,0,2,1062.9626362460003,None,3,9,1,5,4,8,0,7,2,1064.1755644600007,None,1064.1755644600007,None,1064.1755644600007,None,1064.1755644600007,None,1064.1755644600007,None,1064.1755644600007,None,1064.1755644600007,None,1064.1755644600007,None,1064.282148659,1064.788644579,1064.282148659,1064.788644579,1064.282148659,1064.788644579,None,None,down,1.2450877660003243,1064.282148659,None,None,None,z,0.9522475670000858,1065.5750092900007,None,1066.5480071990005,None,,,,,,,,,107,32,2022_Sep_20_1505,templeton_exp2A_SD,2020.2.10,75.02565952575875,
,,,,,,,,,,,,,,,,,,,,,,74,0,74,0,,,,,,,,,,,,,,,,,,,,,,,,0.65,0.75,1.25,,,,,,,,,,,,,,,,,,,,,,,,,,,,,,,,,,,74,1032.17380236,1,7,3,5,0,9,2,8,1,1,7,1067.1210588510003,None,1,7,3,5,0,9,2,4,2,1068.3339911830008,None,1068.3339911830008,None,1068.3339911830008,None,1068.3339911830008,None,1068.3339911830008,None,1068.3339911830008,None,1068.3339911830008,None,1068.3339911830008,None,1068.4406190010004,1068.9470689570007,1068.4406190010004,1068.9470689570007,1068.4406190010004,1068.9470689570007,None,None,left,2.734543639000549,1068.4406190010004,None,None,None,x,2.309037802000603,1071.2262069160006,None,1073.5586151420002,None,,,,,,,,,107,32,2022_Sep_20_1505,templeton_exp2A_SD,2020.2.10,75.02565952575875,
,,,,,,,,,,,,,,,,,,,,,,75,0,75,0,,,,,,,,,,,,,,,,,,,,,,,,0.65,0.75,1.25,,,,,,,,,,,,,,,,,,,,,,,,,,,,,,,,,,,75,1052.6282050070004,2,8,3,6,4,9,0,5,1,1,1,1087.5800812960006,None,2,1,3,6,4,9,0,5,2,1088.7929019160001,None,1088.7929019160001,None,1088.7929019160001,None,1088.7929019160001,None,1088.7929019160001,None,1088.7929019160001,None,1088.7929019160001,None,1088.7929019160001,None,1088.899481855,1089.4059707790002,1088.899481855,1089.4059707790002,1088.899481855,1089.4059707790002,None,None,down,3.97172812000008,1088.899481855,None,None,None,x,2.295935740999994,1092.9113108780002,None,1095.2304533880006,None,,,,,,,,,107,32,2022_Sep_20_1505,templeton_exp2A_SD,2020.2.10,75.02565952575875,
,,,,,,,,,,,,,,,,,,,,,,76,0,76,0,,,,,,,,,,,,,,,,,,,,,,,,2.05,0.75,2.05,,,,,,,,,,,,,,,,,,,,,,,,,,,,,,,,,,,76,1060.857762734,0,7,4,9,3,6,2,5,0,0,7,1095.816869546,None,0,7,4,9,3,6,2,5,3,1098.4426550360004,None,1098.4426550360004,None,1098.4426550360004,None,1098.4426550360004,None,1098.4426550360004,None,1098.4426550360004,None,1098.4426550360004,None,1098.4426550360004,None,1097.1364042690002,1097.642826161,1097.1364042690002,1097.642826161,1097.1364042690002,1097.642826161,None,None,down,1.092544074000216,1098.4426550360004,None,None,None,z,0.7597113599995282,1099.5754691500006,None,1100.3485262930008,None,,,,,,,,,107,32,2022_Sep_20_1505,templeton_exp2A_SD,2020.2.10,75.02565952575875,
,,,,,,,,,,,,,,,,,,,,,,77,0,77,0,,,,,,,,,,,,,,,,,,,,,,,,2.05,0.75,2.05,,,,,,,,,,,,,,,,,,,,,,,,,,,,,,,,,,,77,1065.9769105470004,1,7,0,5,4,6,3,9,0,1,6,1100.9349316300004,None,1,7,0,5,4,6,2,9,4,1103.5606098430007,None,1103.5606098430007,None,1103.5606098430007,None,1103.5606098430007,None,1103.5606098430007,None,1103.5606098430007,None,1103.5606098430007,None,1103.5606098430007,None,1102.2544060760001,1102.7609726620003,1102.2544060760001,1102.7609726620003,1102.2544060760001,1102.7609726620003,None,None,left,2.6466369419995317,1103.5606098430007,None,None,None,x,1.51437528400038,1106.2528889190007,None,1107.785636775,None,,,,,,,,,107,32,2022_Sep_20_1505,templeton_exp2A_SD,2020.2.10,75.02565952575875,
,,,,,,,,,,,,,,,,,,,,,,78,0,78,0,,,,,,,,,,,,,,,,,,,,,,,,0.65,0.75,1.25,,,,,,,,,,,,,,,,,,,,,,,,,,,,,,,,,,,78,1073.4135503780008,2,5,3,6,1,7,4,8,1,0,7,1108.3721982030002,None,2,5,3,6,1,7,4,8,4,1109.5984206480007,None,1109.5984206480007,None,1109.5984206480007,None,1109.5984206480007,None,1109.5984206480007,None,1109.5984206480007,None,1109.5984206480007,None,1109.5984206480007,None,1109.6916221810006,1110.1981038840004,1109.6916221810006,1110.1981038840004,1109.6916221810006,1110.1981038840004,None,None,down,1.6675991980000617,1109.6916221810006,None,None,None,z,0.6522110289997727,1111.410980226,None,1112.0773567410006,None,,,,,,,,,107,32,2022_Sep_20_1505,templeton_exp2A_SD,2020.2.10,75.02565952575875,
,,,,,,,,,,,,,,,,,,,,,,79,0,79,0,,,,,,,,,,,,,,,,,,,,,,,,2.05,0.75,2.05,,,,,,,,,,,,,,,,,,,,,,,,,,,,,,,,,,,79,1077.7039899250003,0,8,4,6,1,9,3,5,0,1,0,1112.663863312,None,2,8,4,6,1,9,3,5,0,1115.2761707990003,None,1115.2761707990003,None,1115.2761707990003,None,1115.2761707990003,None,1115.2761707990003,None,1115.2761707990003,None,1115.2761707990003,None,1115.2761707990003,None,1113.9833237470002,1114.4898162210002,1113.9833237470002,1114.4898162210002,1113.9833237470002,1114.4898162210002,None,None,down,4.371051961000376,1115.2761707990003,None,None,None,x,1.30344746999981,1119.6878085060007,None,1121.0072960070001,None,,,,,,,,,107,32,2022_Sep_20_1505,templeton_exp2A_SD,2020.2.10,75.02565952575875,
,,,,,,,,,,,,,,,,,,,,,,80,0,80,0,,,,,,,,,,,,,,,,,,,,,,,,0.65,0.75,1.25,,,,,,,,,,,,,,,,,,,,,,,,,,,,,,,,,,,80,1086.6363907080004,2,7,4,9,0,8,1,6,1,0,4,1121.5938403790005,None,2,7,4,9,0,8,1,6,0,1122.820008611,None,1122.820008611,None,1122.820008611,None,1122.820008611,None,1122.820008611,None,1122.820008611,None,1122.820008611,None,1122.820008611,None,1122.9266248889999,1123.4330841260007,1122.9266248889999,1123.4330841260007,1122.9266248889999,1123.4330841260007,None,None,down,1.6486126559993863,1122.9266248889999,None,None,None,z,1.1159748760001094,1124.6192788980006,None,1125.752219807,None,,,,,,,,,107,32,2022_Sep_20_1505,templeton_exp2A_SD,2020.2.10,75.02565952575875,
,,,,,,,,,,,,,,,,,,,,,,81,0,81,0,,,,,,,,,,,,,,,,,,,,,,,,2.05,0.75,2.05,,,,,,,,,,,,,,,,,,,,,,,,,,,,,,,,,,,81,1091.3792156850004,0,8,4,5,1,9,3,6,0,0,6,1126.3386291040006,None,0,8,4,5,1,9,3,6,0,1128.9643194240007,None,1128.9643194240007,None,1128.9643194240007,None,1128.9643194240007,None,1128.9643194240007,None,1128.9643194240007,None,1128.9643194240007,None,1128.9643194240007,None,1127.6580992600002,1128.1646490550002,1127.6580992600002,1128.1646490550002,1127.6580992600002,1128.1646490550002,None,None,left,1.8749241119994622,1128.9643194240007,None,None,None,c,1.7556890740006565,1130.8835699460005,None,1132.65622756,None,,,,,,,,,107,32,2022_Sep_20_1505,templeton_exp2A_SD,2020.2.10,75.02565952575875,
,,,,,,,,,,,,,,,,,,,,,,82,0,82,0,,,,,,,,,,,,,,,,,,,,,,,,2.05,0.75,2.05,,,,,,,,,,,,,,,,,,,,,,,,,,,,,,,,,,,82,1098.28374033,2,6,3,7,4,5,1,8,0,0,0,1133.2428159250003,None,2,6,3,7,4,5,1,8,1,1135.8683240240007,None,1135.8683240240007,None,1135.8683240240007,None,1135.8683240240007,None,1135.8683240240007,None,1135.8683240240007,None,1135.8683240240007,None,1135.8683240240007,None,1134.562206003,1135.0687143640007,1134.562206003,1135.0687143640007,1134.562206003,1135.0687143640007,None,None,down,1.954922768999495,1135.8683240240007,None,None,None,x,1.6435986210008195,1137.8676493600005,None,1139.5336775220003,None,,,,,,,,,107,32,2022_Sep_20_1505,templeton_exp2A_SD,2020.2.10,75.02565952575875,
,,,,,,,,,,,,,,,,,,,,,,83,0,83,0,,,,,,,,,,,,,,,,,,,,,,,,0.65,0.75,1.25,,,,,,,,,,,,,,,,,,,,,,,,,,,,,,,,,,,83,1105.160231492,1,7,0,9,3,5,4,8,1,0,1,1140.120132737,None,1,7,0,9,3,5,4,8,1,1141.3329762210005,None,1141.3329762210005,None,1141.3329762210005,None,1141.3329762210005,None,1141.3329762210005,None,1141.3329762210005,None,1141.3329762210005,None,1141.3329762210005,None,1141.4395636130002,1141.9461436250003,1141.4395636130002,1141.9461436250003,1141.4395636130002,1141.9461436250003,None,None,down,4.951689780999914,1141.4395636130002,None,None,None,x,1.2655485859995679,1146.4376954380004,None,1147.7171736230002,None,,,,,,,,,107,32,2022_Sep_20_1505,templeton_exp2A_SD,2020.2.10,75.02565952575875,
,,,,,,,,,,,,,,,,,,,,,,84,0,84,0,,,,,,,,,,,,,,,,,,,,,,,,0.65,0.75,1.25,,,,,,,,,,,,,,,,,,,,,,,,,,,,,,,,,,,84,1113.3455917280007,0,8,3,6,2,5,1,7,1,0,0,1148.3036116399999,None,0,8,3,6,2,5,1,7,1,1149.5298608420007,None,1149.5298608420007,None,1149.5298608420007,None,1149.5298608420007,None,1149.5298608420007,None,1149.5298608420007,None,1149.5298608420007,None,1149.5298608420007,None,1149.6231671330006,1150.1295691220002,1149.6231671330006,1150.1295691220002,1149.6231671330006,1150.1295691220002,None,None,down,1.5199808289999055,1149.6231671330006,None,None,None,x,1.0513538630002586,1151.1959026570003,None,1152.262132074,None,,,,,,,,,107,32,2022_Sep_20_1505,templeton_exp2A_SD,2020.2.10,75.02565952575875,
,,,,,,,,,,,,,,,,,,,,,,85,0,85,0,,,,,,,,,,,,,,,,,,,,,,,,2.05,0.75,2.05,,,,,,,,,,,,,,,,,,,,,,,,,,,,,,,,,,,85,1117.8880293730008,4,7,1,5,0,9,2,8,0,0,7,1152.8352482030004,None,4,7,1,5,0,9,2,8,0,1155.447614779,None,1155.447614779,None,1155.447614779,None,1155.447614779,None,1155.447614779,None,1155.447614779,None,1155.447614779,None,1155.447614779,None,1154.1547105960008,1154.661326499,1154.1547105960008,1154.661326499,1154.1547105960008,1154.661326499,None,None,left,2.8395258500004275,1155.447614779,None,None,None,x,1.17142581600001,1158.3398313390007,None,1159.5260340270006,None,,,,,,,,,107,32,2022_Sep_20_1505,templeton_exp2A_SD,2020.2.10,75.02565952575875,
,,,,,,,,,,,,,,,,,,,,,,86,0,86,0,,,,,,,,,,,,,,,,,,,,,,,,0.65,0.75,1.25,,,,,,,,,,,,,,,,,,,,,,,,,,,,,,,,,,,86,1125.1511402060005,3,5,4,6,2,9,0,8,1,0,1,1160.0991794280008,None,3,5,4,6,2,9,0,8,0,1161.3121141090005,None,1161.3121141090005,None,1161.3121141090005,None,1161.3121141090005,None,1161.3121141090005,None,1161.3121141090005,None,1161.3121141090005,None,1161.3121141090005,None,1161.4054760280005,1161.9118695410007,1161.4054760280005,1161.9118695410007,1161.4054760280005,1161.9118695410007,None,None,down,1.6417458589994567,1161.4054760280005,None,None,None,z,0.6531022469998788,1163.0980482210007,None,1163.7644838240003,None,,,,,,,,,107,32,2022_Sep_20_1505,templeton_exp2A_SD,2020.2.10,75.02565952575875,
,,,,,,,,,,,,,,,,,,,,,,87,0,87,0,,,,,,,,,,,,,,,,,,,,,,,,2.05,0.75,2.05,,,,,,,,,,,,,,,,,,,,,,,,,,,,,,,,,,,87,1129.3926697850002,2,8,1,9,0,7,3,6,0,0,6,1164.350926772,None,2,8,1,9,0,7,3,6,1,1166.9765751780005,None,1166.9765751780005,None,1166.9765751780005,None,1166.9765751780005,None,1166.9765751780005,None,1166.9765751780005,None,1166.9765751780005,None,1166.9765751780005,None,1165.6837232540001,1166.1902391990006,1165.6837232540001,1166.1902391990006,1165.6837232540001,1166.1902391990006,None,None,down,0.9666682139995828,1166.9765751780005,None,None,None,z,0.6976756289996047,1167.989571571,None,1168.7092285859999,None,,,,,,,,,107,32,2022_Sep_20_1505,templeton_exp2A_SD,2020.2.10,75.02565952575875,
,,,,,,,,,,,,,,,,,,,,,,88,0,88,0,,,,,,,,,,,,,,,,,,,,,,,,0.65,0.75,1.25,,,,,,,,,,,,,,,,,,,,,,,,,,,,,,,,,,,88,1134.3357971860005,3,5,1,8,0,6,4,9,1,1,3,1169.2958190620002,None,3,5,1,2,0,6,4,9,1,1170.5086458820006,None,1170.5086458820006,None,1170.5086458820006,None,1170.5086458820006,None,1170.5086458820006,None,1170.5086458820006,None,1170.5086458820006,None,1170.5086458820006,None,1170.6152251419999,1171.1216920360002,1170.6152251419999,1171.1216920360002,1170.6152251419999,1171.1216920360002,None,None,left,1.7520143960000496,1170.6152251419999,None,None,None,z,0.8566339290000542,1172.414606589,None,1173.2941501680007,None,,,,,,,,,107,32,2022_Sep_20_1505,templeton_exp2A_SD,2020.2.10,75.02565952575875,
,,,,,,,,,,,,,,,,,,,,,,89,0,89,0,,,,,,,,,,,,,,,,,,,,,,,,2.05,0.75,2.05,,,,,,,,,,,,,,,,,,,,,,,,,,,,,,,,,,,89,1138.9224659370002,1,5,0,6,4,7,3,9,0,0,2,1173.8806344640007,None,1,5,0,6,4,7,3,9,0,1176.5063389460001,None,1176.5063389460001,None,1176.5063389460001,None,1176.5063389460001,None,1176.5063389460001,None,1176.5063389460001,None,1176.5063389460001,None,1176.5063389460001,None,1175.213524504,1175.7199552170005,1175.213524504,1175.7199552170005,1175.213524504,1175.7199552170005,None,None,left,1.1969036990003588,1176.5063389460001,None,None,None,z,0.869368776000556,1177.7458966950007,None,1178.6387913429999,None,,,,,,,,,107,32,2022_Sep_20_1505,templeton_exp2A_SD,2020.2.10,75.02565952575875,
,,,,,,,,,,,,,,,,,,,,,,90,0,90,0,,,,,,,,,,,,,,,,,,,,,,,,2.05,0.75,2.05,,,,,,,,,,,,,,,,,,,,,,,,,,,,,,,,,,,90,1162.922962832,1,9,0,6,3,5,4,7,0,0,5,1197.884879567,None,1,9,0,6,3,5,4,7,1,1200.5106734850006,None,1200.5106734850006,None,1200.5106734850006,None,1200.5106734850006,None,1200.5106734850006,None,1200.5106734850006,None,1200.5106734850006,None,1200.5106734850006,None,1199.217732479,1199.72427736,1199.217732479,1199.72427736,1199.217732479,1199.72427736,None,None,down,2.024528502999601,1200.5106734850006,None,None,None,x,1.398705302000053,1202.5765303950002,None,1203.9891858660003,None,,,,,,,,,107,32,2022_Sep_20_1505,templeton_exp2A_SD,2020.2.10,75.02565952575875,
,,,,,,,,,,,,,,,,,,,,,,91,0,91,0,,,,,,,,,,,,,,,,,,,,,,,,2.05,0.75,2.05,,,,,,,,,,,,,,,,,,,,,,,,,,,,,,,,,,,91,1169.6173212350004,2,5,3,6,1,9,0,7,0,1,7,1204.5756691310007,None,2,5,3,6,1,9,0,4,2,1207.1880264750007,None,1207.1880264750007,None,1207.1880264750007,None,1207.1880264750007,None,1207.1880264750007,None,1207.1880264750007,None,1207.1880264750007,None,1207.1880264750007,None,1205.895164091,1206.4016829010006,1205.895164091,1206.4016829010006,1205.895164091,1206.4016829010006,None,None,left,1.4831637679999403,1207.1880264750007,None,None,None,z,1.7345107150003969,1208.7206889280005,None,1210.480115679,None,,,,,,,,,107,32,2022_Sep_20_1505,templeton_exp2A_SD,2020.2.10,75.02565952575875,
,,,,,,,,,,,,,,,,,,,,,,92,0,92,0,,,,,,,,,,,,,,,,,,,,,,,,2.05,0.75,2.05,,,,,,,,,,,,,,,,,,,,,,,,,,,,,,,,,,,92,1176.107326243,4,6,3,7,2,9,0,8,0,1,3,1211.0665596080007,None,4,6,3,1,2,9,0,8,3,1213.692233633,None,1213.692233633,None,1213.692233633,None,1213.692233633,None,1213.692233633,None,1213.692233633,None,1213.692233633,None,1213.692233633,None,1212.386005726,1212.8925148810004,1212.386005726,1212.8925148810004,1212.386005726,1212.8925148810004,None,None,left,0.8109632539999438,1213.692233633,None,None,None,z,1.1099506000000474,1214.5452935740004,None,1215.6781583420006,None,,,,,,,,,107,32,2022_Sep_20_1505,templeton_exp2A_SD,2020.2.10,75.02565952575875,
,,,,,,,,,,,,,,,,,,,,,,93,0,93,0,,,,,,,,,,,,,,,,,,,,,,,,2.05,0.75,2.05,,,,,,,,,,,,,,,,,,,,,,,,,,,,,,,,,,,93,1181.3052383490003,3,8,0,6,4,5,2,7,0,1,3,1216.2646617090004,None,3,8,0,1,4,5,2,7,4,1218.876981798,None,1218.876981798,None,1218.876981798,None,1218.876981798,None,1218.876981798,None,1218.876981798,None,1218.876981798,None,1218.876981798,None,1217.584110744,1218.090522163,1217.584110744,1218.090522163,1217.584110744,1218.090522163,None,None,left,1.570262052999169,1218.876981798,None,None,None,x,1.8216059440001118,1220.4896518140004,None,1222.328969966,None,,,,,,,,,107,32,2022_Sep_20_1505,templeton_exp2A_SD,2020.2.10,75.02565952575875,
,,,,,,,,,,,,,,,,,,,,,,94,0,94,0,,,,,,,,,,,,,,,,,,,,,,,,2.05,0.75,2.05,,,,,,,,,,,,,,,,,,,,,,,,,,,,,,,,,,,94,1187.9576497100006,2,8,0,9,1,6,4,7,0,1,5,1222.9154787470006,None,2,8,0,9,1,3,4,7,5,1225.5277452280006,None,1225.5277452280006,None,1225.5277452280006,None,1225.5277452280006,None,1225.5277452280006,None,1225.5277452280006,None,1225.5277452280006,None,1225.5277452280006,None,1224.234964706,1224.7414374240007,1224.234964706,1224.7414374240007,1224.234964706,1224.7414374240007,None,None,left,1.527485925000292,1225.5277452280006,None,None,None,z,1.2907742890001828,1227.1004850400004,None,1228.4065920990006,None,,,,,,,,,107,32,2022_Sep_20_1505,templeton_exp2A_SD,2020.2.10,75.02565952575875,
,,,,,,,,,,,,,,,,,,,,,,95,0,95,0,,,,,,,,,,,,,,,,,,,,,,,,0.65,0.75,1.25,,,,,,,,,,,,,,,,,,,,,,,,,,,,,,,,,,,95,1194.031883017,0,9,4,8,2,5,3,6,1,1,3,1228.97970583,None,0,9,4,1,2,5,3,6,5,1230.1926436009999,None,1230.1926436009999,None,1230.1926436009999,None,1230.1926436009999,None,1230.1926436009999,None,1230.1926436009999,None,1230.1926436009999,None,1230.1926436009999,None,1230.2991716470005,1230.8056512700005,1230.2991716470005,1230.8056512700005,1230.2991716470005,1230.8056512700005,None,None,left,1.4841190779998215,1230.2991716470005,None,None,None,z,1.5673236470001939,1231.8320045910004,None,1233.4181145100001,None,,,,,,,,,107,32,2022_Sep_20_1505,templeton_exp2A_SD,2020.2.10,75.02565952575875,
,,,,,,,,,,,,,,,,,,,,,,96,0,96,0,,,,,,,,,,,,,,,,,,,,,,,,2.05,0.75,2.05,,,,,,,,,,,,,,,,,,,,,,,,,,,,,,,,,,,96,1199.0453815930005,1,6,2,5,0,8,4,9,0,0,0,1234.0044715450003,None,1,6,2,5,0,8,4,9,0,1236.6168990810002,None,1236.6168990810002,None,1236.6168990810002,None,1236.6168990810002,None,1236.6168990810002,None,1236.6168990810002,None,1236.6168990810002,None,1236.6168990810002,None,1235.3240082420007,1235.8305582130006,1235.3240082420007,1235.8305582130006,1235.3240082420007,1235.8305582130006,None,None,left,1.8703307629994015,1236.6168990810002,None,None,None,z,1.119113911000568,1238.5361289770008,None,1239.6690001490006,None,,,,,,,,,107,32,2022_Sep_20_1505,templeton_exp2A_SD,2020.2.10,75.02565952575875,
,,,,,,,,,,,,,,,,,,,,,,97,0,97,0,,,,,,,,,,,,,,,,,,,,,,,,0.65,0.75,1.25,,,,,,,,,,,,,,,,,,,,,,,,,,,,,,,,,,,97,1205.2955644430003,2,6,4,8,0,9,1,5,1,0,7,1240.2554194900003,None,2,6,4,8,0,9,1,5,0,1241.4683095139999,None,1241.4683095139999,None,1241.4683095139999,None,1241.4683095139999,None,1241.4683095139999,None,1241.4683095139999,None,1241.4683095139999,None,1241.4683095139999,None,1241.5749711470007,1242.0814744360005,1241.5749711470007,1242.0814744360005,1241.5749711470007,1242.0814744360005,None,None,down,1.3042800109997188,1241.5749711470007,None,None,None,z,1.0381391680002707,1242.921119611,None,1243.9740362060002,None,,,,,,,,,107,32,2022_Sep_20_1505,templeton_exp2A_SD,2020.2.10,75.02565952575875,
,,,,,,,,,,,,,,,,,,,,,,98,0,98,0,,,,,,,,,,,,,,,,,,,,,,,,0.65,0.75,1.25,,,,,,,,,,,,,,,,,,,,,,,,,,,,,,,,,,,98,1209.6022434860006,0,7,1,9,2,5,4,6,1,1,3,1244.560589928,None,0,7,1,3,2,5,4,6,0,1245.7866467000003,None,1245.7866467000003,None,1245.7866467000003,None,1245.7866467000003,None,1245.7866467000003,None,1245.7866467000003,None,1245.7866467000003,None,1245.7866467000003,None,1245.8800292320002,1246.3865000390006,1245.8800292320002,1246.3865000390006,1245.8800292320002,1246.3865000390006,None,None,down,1.58322182899974,1245.8800292320002,None,None,None,z,1.4611572089997935,1247.5061497040006,None,1248.9854536070006,None,,,,,,,,,107,32,2022_Sep_20_1505,templeton_exp2A_SD,2020.2.10,75.02565952575875,
,,,,,,,,,,,,,,,,,,,,,,99,0,99,0,,,,,,,,,,,,,,,,,,,,,,,,0.65,0.75,1.25,,,,,,,,,,,,,,,,,,,,,,,,,,,,,,,,,,,99,1214.6119598640007,0,5,4,8,3,9,1,7,1,0,7,1249.5585642160004,None,0,5,4,8,3,9,1,7,0,1250.7714103840008,None,1250.7714103840008,None,1250.7714103840008,None,1250.7714103840008,None,1250.7714103840008,None,1250.7714103840008,None,1250.7714103840008,None,1250.7714103840008,None,1250.878132123,1251.3846734859999,1250.878132123,1251.3846734859999,1250.878132123,1251.3846734859999,None,None,down,1.2491170559997045,1250.878132123,None,None,None,z,0.932186080000065,1252.1709848810005,None,1253.117222414,None,,,,,,,,,107,32,2022_Sep_20_1505,templeton_exp2A_SD,2020.2.10,75.02565952575875,
,,,,,,,,,,,,,,,,,,,,,,100,0,100,0,,,,,,,,,,,,,,,,,,,,,,,,2.05,0.75,2.05,,,,,,,,,,,,,,,,,,,,,,,,,,,,,,,,,,,100,1218.746195656,2,6,1,7,0,9,4,8,0,0,1,1253.7036408170006,None,2,6,1,7,0,9,4,8,0,1256.3294008720004,None,1256.3294008720004,None,1256.3294008720004,None,1256.3294008720004,None,1256.3294008720004,None,1256.3294008720004,None,1256.3294008720004,None,1256.3294008720004,None,1255.0231978440006,1255.529725937,1255.0231978440006,1255.529725937,1255.0231978440006,1255.529725937,None,None,left,1.2858319699998901,1256.3294008720004,None,None,None,x,1.5210009510001328,1257.6622331020008,None,1259.2083573610007,None,,,,,,,,,107,32,2022_Sep_20_1505,templeton_exp2A_SD,2020.2.10,75.02565952575875,
,,,,,,,,,,,,,,,,,,,,,,101,0,101,0,,,,,,,,,,,,,,,,,,,,,,,,0.65,0.75,1.25,,,,,,,,,,,,,,,,,,,,,,,,,,,,,,,,,,,101,1224.8357304360006,3,8,2,7,1,6,4,5,1,1,4,1259.794721534,None,3,8,2,7,0,6,4,5,0,1261.007600852,None,1261.007600852,None,1261.007600852,None,1261.007600852,None,1261.007600852,None,1261.007600852,None,1261.007600852,None,1261.007600852,None,1261.1142353610003,1261.620694917,1261.1142353610003,1261.620694917,1261.1142353610003,1261.620694917,None,None,down,4.900918455000465,1261.1142353610003,None,None,None,x,1.468342162999761,1266.0588653270006,None,1267.5518707580004,None,,,,,,,,,107,32,2022_Sep_20_1505,templeton_exp2A_SD,2020.2.10,75.02565952575875,
,,,,,,,,,,,,,,,,,,,,,,102,0,102,0,,,,,,,,,,,,,,,,,,,,,,,,2.05,0.75,2.05,,,,,,,,,,,,,,,,,,,,,,,,,,,,,,,,,,,102,1233.1780512730002,0,8,3,7,2,9,1,5,0,0,1,1268.1248833580003,None,0,8,3,7,2,9,1,5,1,1270.7373040930006,None,1270.7373040930006,None,1270.7373040930006,None,1270.7373040930006,None,1270.7373040930006,None,1270.7373040930006,None,1270.7373040930006,None,1270.7373040930006,None,1269.4445345510003,1269.9509401240002,1269.4445345510003,1269.9509401240002,1269.4445345510003,1269.9509401240002,None,None,down,1.2138394780004091,1270.7373040930006,None,None,None,z,1.2757672990001083,1272.003487508,None,1273.296270275,None,,,,,,,,,107,32,2022_Sep_20_1505,templeton_exp2A_SD,2020.2.10,75.02565952575875,
,,,,,,,,,,,,,,,,,,,,,,103,0,103,0,,,,,,,,,,,,,,,,,,,,,,,,0.65,0.75,1.25,,,,,,,,,,,,,,,,,,,,,,,,,,,,,,,,,,,103,1238.9248771230004,0,5,4,7,1,6,2,8,1,1,5,1273.8827136090003,None,0,5,4,7,1,3,2,8,1,1275.0956912730007,None,1275.0956912730007,None,1275.0956912730007,None,1275.0956912730007,None,1275.0956912730007,None,1275.0956912730007,None,1275.0956912730007,None,1275.0956912730007,None,1275.2023177330002,1275.7087346470007,1275.2023177330002,1275.7087346470007,1275.2023177330002,1275.7087346470007,None,None,down,1.3169198389996382,1275.2023177330002,None,None,None,x,1.5494000750004489,1276.561843816,None,1278.1345234670007,None,,,,,,,,,107,32,2022_Sep_20_1505,templeton_exp2A_SD,2020.2.10,75.02565952575875,
,,,,,,,,,,,,,,,,,,,,,,104,0,104,0,,,,,,,,,,,,,,,,,,,,,,,,2.05,0.75,2.05,,,,,,,,,,,,,,,,,,,,,,,,,,,,,,,,,,,104,1243.7602468490004,3,8,2,9,4,6,1,5,0,0,5,1278.7076101870007,None,3,8,2,9,4,6,1,5,0,1281.3198478560007,None,1281.3198478560007,None,1281.3198478560007,None,1281.3198478560007,None,1281.3198478560007,None,1281.3198478560007,None,1281.3198478560007,None,1281.3198478560007,None,1280.027154161,1280.533534653,1280.027154161,1280.533534653,1280.027154161,1280.533534653,None,None,left,2.103381279000132,1281.3198478560007,None,None,None,x,3.5334201690002374,1283.4658056710005,None,1287.0244442980002,None,,,,,,,,,107,32,2022_Sep_20_1505,templeton_exp2A_SD,2020.2.10,75.02565952575875,
,,,,,,,,,,,,,,,,,,,,,,105,0,105,0,,,,,,,,,,,,,,,,,,,,,,,,0.65,0.75,1.25,,,,,,,,,,,,,,,,,,,,,,,,,,,,,,,,,,,105,1262.4694230530004,3,5,1,8,2,6,4,9,1,1,2,1297.4204526419999,None,3,5,0,8,2,6,4,9,0,1298.6334262990003,None,1298.6334262990003,None,1298.6334262990003,None,1298.6334262990003,None,1298.6334262990003,None,1298.6334262990003,None,1298.6334262990003,None,1298.6334262990003,None,1298.7398331620007,1299.246426617,1298.7398331620007,1299.246426617,1298.7398331620007,1299.246426617,None,None,down,2.035415543000454,1298.7398331620007,None,None,None,x,1.2359311219997835,1300.8192753430003,None,1302.0720667570004,None,,,,,,,,,107,32,2022_Sep_20_1505,templeton_exp2A_SD,2020.2.10,75.02565952575875,
,,,,,,,,,,,,,,,,,,,,,,106,0,106,0,,,,,,,,,,,,,,,,,,,,,,,,0.65,0.75,1.25,,,,,,,,,,,,,,,,,,,,,,,,,,,,,,,,,,,106,1267.6975576190007,1,7,4,9,2,8,3,5,1,0,2,1302.645196986,None,1,7,4,9,2,8,3,5,0,1303.8581142930007,None,1303.8581142930007,None,1303.8581142930007,None,1303.8581142930007,None,1303.8581142930007,None,1303.8581142930007,None,1303.8581142930007,None,1303.8581142930007,None,1303.9647600110002,1304.4711049120006,1303.9647600110002,1304.4711049120006,1303.9647600110002,1304.4711049120006,None,None,down,1.810531405000802,1303.9647600110002,None,None,None,z,2.021917218999988,1305.8173417830003,None,1307.8564970520001,None,,,,,,,,,107,32,2022_Sep_20_1505,templeton_exp2A_SD,2020.2.10,75.02565952575875,
,,,,,,,,,,,,,,,,,,,,,,107,0,107,0,,,,,,,,,,,,,,,,,,,,,,,,0.65,0.75,1.25,,,,,,,,,,,,,,,,,,,,,,,,,,,,,,,,,,,107,1273.483503171,3,8,4,6,0,5,2,7,1,1,7,1308.4429937900004,None,3,8,4,6,0,5,2,1,0,1309.65580296,None,1309.65580296,None,1309.65580296,None,1309.65580296,None,1309.65580296,None,1309.65580296,None,1309.65580296,None,1309.65580296,None,1309.7625838130007,1310.2690315400005,1309.7625838130007,1310.2690315400005,1309.7625838130007,1310.2690315400005,None,None,left,1.116664555999705,1309.7625838130007,None,None,None,z,0.9251791099995899,1310.9220634460007,None,1311.868291371,None,,,,,,,,,107,32,2022_Sep_20_1505,templeton_exp2A_SD,2020.2.10,75.02565952575875,
,,,,,,,,,,,,,,,,,,,,,,108,0,108,0,,,,,,,,,,,,,,,,,,,,,,,,0.65,0.75,1.25,,,,,,,,,,,,,,,,,,,,,,,,,,,,,,,,,,,108,1277.497229091,2,8,0,9,1,7,4,6,1,1,4,1312.4547827680008,None,2,8,0,9,3,7,4,6,0,1313.6810694640008,None,1313.6810694640008,None,1313.6810694640008,None,1313.6810694640008,None,1313.6810694640008,None,1313.6810694640008,None,1313.6810694640008,None,1313.6810694640008,None,1313.774354493,1314.2808215390005,1313.774354493,1314.2808215390005,1313.774354493,1314.2808215390005,None,None,down,1.5128954080000767,1313.774354493,None,None,None,x,1.0014898569997968,1315.3337144340003,None,1316.360020016,None,,,,,,,,,107,32,2022_Sep_20_1505,templeton_exp2A_SD,2020.2.10,75.02565952575875,
,,,,,,,,,,,,,,,,,,,,,,109,0,109,0,,,,,,,,,,,,,,,,,,,,,,,,2.05,0.75,2.05,,,,,,,,,,,,,,,,,,,,,,,,,,,,,,,,,,,109,1281.9883215220007,3,7,2,8,0,6,1,9,0,1,1,1316.9464205970007,None,3,4,2,8,0,6,1,9,1,1319.5587920560001,None,1319.5587920560001,None,1319.5587920560001,None,1319.5587920560001,None,1319.5587920560001,None,1319.5587920560001,None,1319.5587920560001,None,1319.5587920560001,None,1318.2658770820008,1318.7724798420004,1318.2658770820008,1318.7724798420004,1318.2658770820008,1318.7724798420004,None,None,left,1.304448875000162,1319.5587920560001,None,None,None,z,0.8863203649998468,1320.9049352090005,None,1321.8112685060005,None,,,,,,,,,107,32,2022_Sep_20_1505,templeton_exp2A_SD,2020.2.10,75.02565952575875,
,,,,,,,,,,,,,,,,,,,,,,110,0,110,0,,,,,,,,,,,,,,,,,,,,,,,,2.05,0.75,2.05,,,,,,,,,,,,,,,,,,,,,,,,,,,,,,,,,,,110,1287.4395137320007,0,6,3,8,1,7,2,5,0,1,6,1322.3977560060002,None,0,6,3,8,1,7,4,5,2,1325.0233871760001,None,1325.0233871760001,None,1325.0233871760001,None,1325.0233871760001,None,1325.0233871760001,None,1325.0233871760001,None,1325.0233871760001,None,1325.0233871760001,None,1323.7172693250004,1324.2236246080001,1323.7172693250004,1324.2236246080001,1323.7172693250004,1324.2236246080001,None,None,left,1.4638530369993532,1325.0233871760001,None,None,None,x,1.2377623550000862,1326.529522322,None,1327.7823376300003,None,,,,,,,,,107,32,2022_Sep_20_1505,templeton_exp2A_SD,2020.2.10,75.02565952575875,
,,,,,,,,,,,,,,,,,,,,,,111,0,111,0,,,,,,,,,,,,,,,,,,,,,,,,2.05,0.75,2.05,,,,,,,,,,,,,,,,,,,,,,,,,,,,,,,,,,,111,1293.4106022290007,2,9,1,7,0,5,4,6,0,1,2,1328.3688379150008,None,2,9,3,7,0,5,4,6,3,1330.9944301200003,None,1330.9944301200003,None,1330.9944301200003,None,1330.9944301200003,None,1330.9944301200003,None,1330.9944301200003,None,1330.9944301200003,None,1330.9944301200003,None,1329.6882420620004,1330.1947907560007,1329.6882420620004,1330.1947907560007,1329.6882420620004,1330.1947907560007,None,None,left,1.7648020110000289,1330.9944301200003,None,None,None,c,1.07212056499975,1332.8071339710004,None,1333.8999319530003,None,,,,,,,,,107,32,2022_Sep_20_1505,templeton_exp2A_SD,2020.2.10,75.02565952575875,
,,,,,,,,,,,,,,,,,,,,,,112,0,112,0,,,,,,,,,,,,,,,,,,,,,,,,0.65,0.75,1.25,,,,,,,,,,,,,,,,,,,,,,,,,,,,,,,,,,,112,1299.5280331020003,1,6,3,5,2,8,0,7,1,0,0,1334.4864786980006,None,1,6,3,5,2,8,0,7,3,1335.7126448340005,None,1335.7126448340005,None,1335.7126448340005,None,1335.7126448340005,None,1335.7126448340005,None,1335.7126448340005,None,1335.7126448340005,None,1335.7126448340005,None,1335.8059547010007,1336.312430807,1335.8059547010007,1336.312430807,1335.8059547010007,1336.312430807,None,None,down,1.2732960189996447,1335.8059547010007,None,None,None,z,1.4178152419999606,1337.125443297,None,1338.564931297,None,,,,,,,,,107,32,2022_Sep_20_1505,templeton_exp2A_SD,2020.2.10,75.02565952575875,
,,,,,,,,,,,,,,,,,,,,,,113,0,113,0,,,,,,,,,,,,,,,,,,,,,,,,0.65,0.75,1.25,,,,,,,,,,,,,,,,,,,,,,,,,,,,,,,,,,,113,1304.1924372080002,4,9,0,8,2,6,3,7,1,1,1,1339.151346222,None,4,1,0,8,2,6,3,7,3,1340.3776640650003,None,1340.3776640650003,None,1340.3776640650003,None,1340.3776640650003,None,1340.3776640650003,None,1340.3776640650003,None,1340.3776640650003,None,1340.3776640650003,None,1340.484187041,1340.990643571,1340.484187041,1340.990643571,1340.484187041,1340.990643571,None,None,left,2.8910656220004967,1340.484187041,None,None,None,x,1.7508129429998007,1343.4164552780003,None,1345.18907932,None,,,,,,,,,107,32,2022_Sep_20_1505,templeton_exp2A_SD,2020.2.10,75.02565952575875,
,,,,,,,,,,,,,,,,,,,,,,114,0,114,0,,,,,,,,,,,,,,,,,,,,,,,,0.65,0.75,1.25,,,,,,,,,,,,,,,,,,,,,,,,,,,,,,,,,,,114,1310.8167826630006,1,6,0,5,3,9,2,7,1,1,6,1345.7755064560006,None,1,6,0,5,3,9,4,7,3,1347.001750474,None,1347.001750474,None,1347.001750474,None,1347.001750474,None,1347.001750474,None,1347.001750474,None,1347.001750474,None,1347.001750474,None,1347.094997708,1347.6014896880006,1347.094997708,1347.6014896880006,1347.094997708,1347.6014896880006,None,None,down,2.224242988999322,1347.094997708,None,None,None,x,1.4863966509992679,1349.3608620570003,None,1350.866929492,None,,,,,,,,,107,32,2022_Sep_20_1505,templeton_exp2A_SD,2020.2.10,75.02565952575875,
,,,,,,,,,,,,,,,,,,,,,,115,0,115,0,,,,,,,,,,,,,,,,,,,,,,,,2.05,0.75,2.05,,,,,,,,,,,,,,,,,,,,,,,,,,,,,,,,,,,115,1316.495120916,2,7,0,5,4,6,1,9,0,1,7,1351.4533201780005,None,2,7,0,5,4,6,1,3,4,1354.0790857910006,None,1354.0790857910006,None,1354.0790857910006,None,1354.0790857910006,None,1354.0790857910006,None,1354.0790857910006,None,1354.0790857910006,None,1354.0790857910006,None,1352.772828567,1353.2793218430006,1352.772828567,1353.2793218430006,1352.772828567,1353.2793218430006,None,None,left,1.4081294519992298,1354.0790857910006,None,None,None,z,1.7473133829998915,1355.5319030970004,None,1357.304474611,None,,,,,,,,,107,32,2022_Sep_20_1505,templeton_exp2A_SD,2020.2.10,75.02565952575875,
,,,,,,,,,,,,,,,,,,,,,,116,0,116,0,,,,,,,,,,,,,,,,,,,,,,,,2.05,0.75,2.05,,,,,,,,,,,,,,,,,,,,,,,,,,,,,,,,,,,116,1322.932339297,2,7,4,6,1,5,3,8,0,1,6,1357.8909725960002,None,2,7,4,6,1,5,0,8,5,1360.516609368,None,1360.516609368,None,1360.516609368,None,1360.516609368,None,1360.516609368,None,1360.516609368,None,1360.516609368,None,1360.516609368,None,1359.210515672,1359.7169179130005,1359.210515672,1359.7169179130005,1359.210515672,1359.7169179130005,None,None,left,1.3865281219996177,1360.516609368,None,None,None,z,1.363221612000416,1361.956022982,None,1363.342150206,None,,,,,,,,,107,32,2022_Sep_20_1505,templeton_exp2A_SD,2020.2.10,75.02565952575875,
,,,,,,,,,,,,,,,,,,,,,,117,0,117,0,,,,,,,,,,,,,,,,,,,,,,,,2.05,0.75,2.05,,,,,,,,,,,,,,,,,,,,,,,,,,,,,,,,,,,117,1328.968926263,2,9,0,6,3,5,1,8,0,1,7,1363.9286315620002,None,2,9,0,6,3,5,1,4,6,1366.5409794470006,None,1366.5409794470006,None,1366.5409794470006,None,1366.5409794470006,None,1366.5409794470006,None,1366.5409794470006,None,1366.5409794470006,None,1366.5409794470006,None,1365.2481879920006,1365.7546260140007,1365.2481879920006,1365.7546260140007,1365.2481879920006,1365.7546260140007,None,None,left,1.75428308499977,1366.5409794470006,None,None,None,z,1.2029433100005917,1368.3403050260004,None,1369.56645089,None,,,,,,,,,107,32,2022_Sep_20_1505,templeton_exp2A_SD,2020.2.10,75.02565952575875,
,,,,,,,,,,,,,,,,,,,,,,118,0,118,0,,,,,,,,,,,,,,,,,,,,,,,,0.65,0.75,1.25,,,,,,,,,,,,,,,,,,,,,,,,,,,,,,,,,,,118,1335.1949898900002,4,7,0,8,1,9,3,6,1,0,2,1370.1528968970006,None,4,7,0,8,1,9,3,6,6,1371.3789968800002,None,1371.3789968800002,None,1371.3789968800002,None,1371.3789968800002,None,1371.3789968800002,None,1371.3789968800002,None,1371.3789968800002,None,1371.3789968800002,None,1371.485735143,1371.9923072150004,1371.485735143,1371.9923072150004,1371.485735143,1371.9923072150004,None,None,left,3.9535163510008715,1371.485735143,None,None,None,x,0.8989855639993038,1375.4842722160001,None,1376.403911513,None,,,,,,,,,107,32,2022_Sep_20_1505,templeton_exp2A_SD,2020.2.10,75.02565952575875,
,,,,,,,,,,,,,,,,,,,,,,119,0,119,0,,,,,,,,,,,,,,,,,,,,,,,,2.05,0.75,2.05,,,,,,,,,,,,,,,,,,,,,,,,,,,,,,,,,,,119,1342.0303022930002,4,5,0,7,1,8,3,9,0,0,7,1376.9903408300006,None,4,5,0,7,1,8,3,9,7,1379.6026925980004,None,1379.6026925980004,None,1379.6026925980004,None,1379.6026925980004,None,1379.6026925980004,None,1379.6026925980004,None,1379.6026925980004,None,1379.6026925980004,None,1378.3098527050006,1378.8163256450007,1378.3098527050006,1378.8163256450007,1378.3098527050006,1378.8163256450007,None,None,down,1.4765510790002736,1379.6026925980004,None,None,None,z,1.6929690930001016,1381.1221900810006,None,1382.841415236,None,,,,,,,,,107,32,2022_Sep_20_1505,templeton_exp2A_SD,2020.2.10,75.02565952575875,
,,,,,,,,,,,,,,,,,,,,,,120,0,120,0,,,,,,,,,,,,,,,,,,,,,,,,0.65,0.75,1.25,,,,,,,,,,,,,,,,,,,,,,,,,,,,,,,,,,,120,1359.9394442600005,4,9,0,7,1,5,2,8,1,0,1,1394.8901967830006,None,4,9,0,7,1,5,2,8,7,1396.1030558150005,None,1396.1030558150005,None,1396.1030558150005,None,1396.1030558150005,None,1396.1030558150005,None,1396.1030558150005,None,1396.1030558150005,None,1396.1030558150005,None,1396.2097502370007,1396.7161651430006,1396.2097502370007,1396.7161651430006,1396.2097502370007,1396.7161651430006,None,None,down,2.437504032999641,1396.2097502370007,None,None,None,x,1.0064670129995648,1398.6887769470004,None,1399.7150451280004,None,,,,,,,,,107,32,2022_Sep_20_1505,templeton_exp2A_SD,2020.2.10,75.02565952575875,
,,,,,,,,,,,,,,,,,,,,,,121,0,121,0,,,,,,,,,,,,,,,,,,,,,,,,2.05,0.75,2.05,,,,,,,,,,,,,,,,,,,,,,,,,,,,,,,,,,,121,1365.3417191320004,1,5,0,6,2,9,3,8,0,0,5,1400.3014850540003,None,1,5,0,6,2,9,3,8,0,1402.913784163,None,1402.913784163,None,1402.913784163,None,1402.913784163,None,1402.913784163,None,1402.913784163,None,1402.913784163,None,1402.913784163,None,1401.6210669340007,1402.1274189240003,1401.6210669340007,1402.1274189240003,1401.6210669340007,1402.1274189240003,None,None,left,1.9174604629997702,1402.913784163,None,None,None,x,0.7262353820005956,1404.8730725880005,None,1405.6195353700004,None,,,,,,,,,107,32,2022_Sep_20_1505,templeton_exp2A_SD,2020.2.10,75.02565952575875,
,,,,,,,,,,,,,,,,,,,,,,122,0,122,0,,,,,,,,,,,,,,,,,,,,,,,,0.65,0.75,1.25,,,,,,,,,,,,,,,,,,,,,,,,,,,,,,,,,,,122,1371.246313052,4,9,2,7,0,6,3,5,1,1,3,1406.2059350939999,None,4,9,2,1,0,6,3,5,0,1407.4188920720007,None,1407.4188920720007,None,1407.4188920720007,None,1407.4188920720007,None,1407.4188920720007,None,1407.4188920720007,None,1407.4188920720007,None,1407.4188920720007,None,1407.5254867510002,1408.031887221,1407.5254867510002,1408.031887221,1407.5254867510002,1408.031887221,None,None,down,2.985651897000025,1407.5254867510002,None,None,None,x,1.3629739999996673,1410.5642765560006,None,1411.9504416340005,None,,,,,,,,,107,32,2022_Sep_20_1505,templeton_exp2A_SD,2020.2.10,75.02565952575875,
,,,,,,,,,,,,,,,,,,,,,,123,0,123,0,,,,,,,,,,,,,,,,,,,,,,,,0.65,0.75,1.25,,,,,,,,,,,,,,,,,,,,,,,,,,,,,,,,,,,123,1377.5753184120003,0,5,3,9,2,7,4,8,1,1,6,1412.523555871,None,0,5,3,9,2,7,1,8,0,1413.736378998,None,1413.736378998,None,1413.736378998,None,1413.736378998,None,1413.736378998,None,1413.736378998,None,1413.736378998,None,1413.736378998,None,1413.8430212530002,1414.3494730870007,1413.8430212530002,1414.3494730870007,1413.8430212530002,1414.3494730870007,None,None,down,1.5242171670006428,1413.8430212530002,None,None,None,x,1.5034396849996483,1415.4158104130001,None,1416.9351445110005,None,,,,,,,,,107,32,2022_Sep_20_1505,templeton_exp2A_SD,2020.2.10,75.02565952575875,
,,,,,,,,,,,,,,,,,,,,,,124,0,124,0,,,,,,,,,,,,,,,,,,,,,,,,2.05,0.75,2.05,,,,,,,,,,,,,,,,,,,,,,,,,,,,,,,,,,,124,1382.56278467,0,8,4,6,3,5,2,7,0,0,3,1417.521603065,None,0,8,4,6,3,5,2,7,0,1420.147246419,None,1420.147246419,None,1420.147246419,None,1420.147246419,None,1420.147246419,None,1420.147246419,None,1420.147246419,None,1420.147246419,None,1418.8412016470002,1419.3476857640007,1418.8412016470002,1419.3476857640007,1418.8412016470002,1419.3476857640007,None,None,left,3.2838912589995743,1420.147246419,None,None,None,z,1.4797675380004875,1423.4793875650003,None,1424.9855300640002,None,,,,,,,,,107,32,2022_Sep_20_1505,templeton_exp2A_SD,2020.2.10,75.02565952575875,
,,,,,,,,,,,,,,,,,,,,,,125,0,125,0,,,,,,,,,,,,,,,,,,,,,,,,2.05,0.75,2.05,,,,,,,,,,,,,,,,,,,,,,,,,,,,,,,,,,,125,1390.6104428030003,2,5,4,9,3,7,0,8,0,1,1,1425.5585710290006,None,2,1,4,9,3,7,0,8,1,1428.1709175710002,None,1428.1709175710002,None,1428.1709175710002,None,1428.1709175710002,None,1428.1709175710002,None,1428.1709175710002,None,1428.1709175710002,None,1428.1709175710002,None,1426.8781150640007,1427.3845248610005,1426.8781150640007,1427.3845248610005,1426.8781150640007,1427.3845248610005,None,None,left,3.8603263400000287,1428.1709175710002,None,None,None,x,1.099109347999729,1432.076151014,None,1433.1956779860002,None,,,,,,,,,107,32,2022_Sep_20_1505,templeton_exp2A_SD,2020.2.10,75.02565952575875,
,,,,,,,,,,,,,,,,,,,,,,126,0,126,0,,,,,,,,,,,,,,,,,,,,,,,,2.05,0.75,2.05,,,,,,,,,,,,,,,,,,,,,,,,,,,,,,,,,,,126,1398.823712194,3,8,2,5,0,6,1,7,0,1,4,1433.7821467430003,None,3,8,2,5,4,6,1,7,2,1436.407791558,None,1436.407791558,None,1436.407791558,None,1436.407791558,None,1436.407791558,None,1436.407791558,None,1436.407791558,None,1436.407791558,None,1435.1016144570003,1435.6082327330005,1435.1016144570003,1435.6082327330005,1435.1016144570003,1435.6082327330005,None,None,left,1.4634419719996004,1436.407791558,None,None,None,x,1.9331576209997365,1437.9139961050005,None,1439.8731190610006,None,,,,,,,,,107,32,2022_Sep_20_1505,templeton_exp2A_SD,2020.2.10,75.02565952575875,
,,,,,,,,,,,,,,,,,,,,,,127,0,127,0,,,,,,,,,,,,,,,,,,,,,,,,2.05,0.75,2.05,,,,,,,,,,,,,,,,,,,,,,,,,,,,,,,,,,,127,1405.498220286,2,9,0,5,3,6,4,8,0,1,1,1440.4596489660007,None,2,1,0,5,3,6,4,8,3,1443.0719592780006,None,1443.0719592780006,None,1443.0719592780006,None,1443.0719592780006,None,1443.0719592780006,None,1443.0719592780006,None,1443.0719592780006,None,1443.0719592780006,None,1441.7791763270006,1442.2855710640006,1441.7791763270006,1442.2855710640006,1441.7791763270006,1442.2855710640006,None,None,left,1.2392687030005618,1443.0719592780006,None,None,None,z,1.4796170559993698,1444.351570848,None,1445.8575737010005,None,,,,,,,,,107,32,2022_Sep_20_1505,templeton_exp2A_SD,2020.2.10,75.02565952575875,
,,,,,,,,,,,,,,,,,,,,,,128,0,128,0,,,,,,,,,,,,,,,,,,,,,,,,0.65,0.75,1.25,,,,,,,,,,,,,,,,,,,,,,,,,,,,,,,,,,,128,1411.486002003,0,5,3,8,1,6,4,7,1,0,4,1446.4440839080007,None,0,5,3,8,1,6,4,7,3,1447.67024562,None,1447.67024562,None,1447.67024562,None,1447.67024562,None,1447.67024562,None,1447.67024562,None,1447.67024562,None,1447.67024562,None,1447.763598261,1448.2699731440007,1447.763598261,1448.2699731440007,1447.763598261,1448.2699731440007,None,None,down,3.227656711000236,1447.763598261,None,None,None,x,1.6770075350004845,1451.0422407650003,None,1452.7349875210002,None,,,,,,,,,107,32,2022_Sep_20_1505,templeton_exp2A_SD,2020.2.10,75.02565952575875,
,,,,,,,,,,,,,,,,,,,,,,129,0,129,0,,,,,,,,,,,,,,,,,,,,,,,,0.65,0.75,1.25,,,,,,,,,,,,,,,,,,,,,,,,,,,,,,,,,,,129,1418.3634638020003,1,6,4,5,2,7,0,8,1,1,5,1453.3213952610004,None,1,6,4,5,2,3,0,8,3,1454.534205176,None,1454.534205176,None,1454.534205176,None,1454.534205176,None,1454.534205176,None,1454.534205176,None,1454.534205176,None,1454.534205176,None,1454.640915082,1455.1473107880001,1454.640915082,1455.1473107880001,1454.640915082,1455.1473107880001,None,None,down,4.814323418999265,1454.640915082,None,None,None,x,2.6454801339996266,1459.5057795080002,None,1462.1713689750004,None,,,,,,,,,107,32,2022_Sep_20_1505,templeton_exp2A_SD,2020.2.10,75.02565952575875,
,,,,,,,,,,,,,,,,,,,,,,130,0,130,0,,,,,,,,,,,,,,,,,,,,,,,,0.65,0.75,1.25,,,,,,,,,,,,,,,,,,,,,,,,,,,,,,,,,,,130,1427.7986140170005,3,7,4,6,0,5,2,8,1,1,2,1462.757906078,None,3,7,1,6,0,5,2,8,3,1463.9840444760002,None,1463.9840444760002,None,1463.9840444760002,None,1463.9840444760002,None,1463.9840444760002,None,1463.9840444760002,None,1463.9840444760002,None,1463.9840444760002,None,1464.0773354100002,None,1464.0773354100002,None,1464.0773354100002,None,None,None,down,0.28994855099972483,1464.0773354100002,None,None,None,c,2.924648330999844,1464.4105592189999,None,1467.3560572630004,None,,,,,,,,,107,32,2022_Sep_20_1505,templeton_exp2A_SD,2020.2.10,75.02565952575875,
,,,,,,,,,,,,,,,,,,,,,,131,0,131,0,,,,,,,,,,,,,,,,,,,,,,,,2.05,0.75,2.05,,,,,,,,,,,,,,,,,,,,,,,,,,,,,,,,,,,131,1432.983608861,4,6,2,5,1,8,3,7,0,1,6,1467.9425383690004,None,4,6,2,5,1,8,0,7,4,1470.568185471,None,1470.568185471,None,1470.568185471,None,1470.568185471,None,1470.568185471,None,1470.568185471,None,1470.568185471,None,1470.568185471,None,1469.2620610889999,1469.7685068330002,1469.2620610889999,1469.7685068330002,1469.2620610889999,1469.7685068330002,None,None,left,1.9350258519998533,1470.568185471,None,None,None,x,1.4451615819998551,1472.5540863220003,None,1474.0202449950002,None,,,,,,,,,107,32,2022_Sep_20_1505,templeton_exp2A_SD,2020.2.10,75.02565952575875,
,,,,,,,,,,,,,,,,,,,,,,132,0,132,0,,,,,,,,,,,,,,,,,,,,,,,,2.05,0.75,2.05,,,,,,,,,,,,,,,,,,,,,,,,,,,,,,,,,,,132,1439.6484100810003,2,9,0,5,1,7,4,6,0,0,2,1474.606748149,None,2,9,0,5,1,7,4,6,5,1477.2323913830005,None,1477.2323913830005,None,1477.2323913830005,None,1477.2323913830005,None,1477.2323913830005,None,1477.2323913830005,None,1477.2323913830005,None,1477.2323913830005,None,1475.9262020810002,1476.4326460040002,1475.9262020810002,1476.4326460040002,1475.9262020810002,1476.4326460040002,None,None,down,2.0628522429997247,1477.2323913830005,None,None,None,z,1.901046342999507,1479.3382149690005,None,1481.2575081300001,None,,,,,,,,,107,32,2022_Sep_20_1505,templeton_exp2A_SD,2020.2.10,75.02565952575875,
