trials_2.thisRepN,trials_2.thisTrialN,trials_2.thisN,trials_2.thisIndex,Used_image_1,Used_image_2,Used_image_3,Used_image_4,Used_image_5,Used_image_6,Used_image_7,Used_image_8,Unused_image_1,Unused_image_2,trials.thisRepN,trials.thisTrialN,trials.thisN,trials.thisIndex,trials_4.thisRepN,trials_4.thisTrialN,trials_4.thisN,trials_4.thisIndex,trials_10.thisRepN,trials_10.thisTrialN,trials_10.thisN,trials_10.thisIndex,welcome.started,welcome.stopped,pointer_dot_0.started,pointer_dot_0.stopped,pointer_dot_1.started,pointer_dot_1.stopped,pointer_dot_2.started,pointer_dot_2.stopped,SD_image.started,SD_image.stopped,memDisplayOnTimePractice,mem_image_0_practice,mem_image_1_practice,mem_image_2_practice,mem_image_3_practice,mem_image_4_practice,mem_image_5_practice,mem_image_6_practice,mem_image_7_practice,retention_interval_practice,retro_0_post_1_practice,change_or_no_practice,cue_location_practice,mem_display_to_test_array_duration_s,mem_display_to_cue_duration_s,routine_duration_s,array_image_1f.started,array_image_1f.stopped,array_image_2f.started,array_image_2f.stopped,array_image_3f.started,array_image_3f.stopped,array_image_4f.started,array_image_4f.stopped,array_image_5f.started,array_image_5f.stopped,array_image_6f.started,array_image_6f.stopped,array_image_7f.started,array_image_7f.stopped,array_image_8f.started,array_image_8f.stopped,pointer_dot_0b.started,pointer_dot_0b.stopped,pointer_dot_1b.started,pointer_dot_1b.stopped,pointer_dot_2b.started,pointer_dot_2b.stopped,sd_practice_resp.keys,sd_practice_resp.rt,sd_practice_resp.started,sd_practice_resp.stopped,text_10.started,text_10.stopped,conf_practice_resp.keys,conf_practice_resp.rt,conf_practice_resp.started,conf_practice_resp.stopped,image.started,image.stopped,training_trial_index,memDisplayOnTimeTraining,mem_image_0_training,mem_image_1_training,mem_image_2_training,mem_image_3_training,mem_image_4_training,mem_image_5_training,mem_image_6_training,mem_image_7_training,retro_0_post_1_training,change_or_no_training,cue_location_training,array_image_1l.started,array_image_1l.stopped,test_image_0_training,test_image_1_training,test_image_2_training,test_image_3_training,test_image_4_training,test_image_5_training,test_image_6_training,test_image_7_training,consecutive_correct_retro_short,array_image_1m.started,array_image_1m.stopped,array_image_2m.started,array_image_2m.stopped,array_image_3m.started,array_image_3m.stopped,array_image_4m.started,array_image_4m.stopped,array_image_5m.started,array_image_5m.stopped,array_image_6m.started,array_image_6m.stopped,array_image_7m.started,array_image_7m.stopped,array_image_8m.started,array_image_8m.stopped,pointer_dot_0d.started,pointer_dot_0d.stopped,pointer_dot_1d.started,pointer_dot_1d.stopped,pointer_dot_2d.started,pointer_dot_2d.stopped,reminder_training.started,reminder_training.stopped,sd_training_resp.keys,sd_training_resp.rt,sd_training_resp.started,sd_training_resp.stopped,text_15.started,text_15.stopped,conf_training_resp.keys,conf_training_resp.rt,conf_training_resp.started,conf_training_resp.stopped,text.started,text.stopped,short_interval_training_finished,training_trial_index_long_this_block,correct_retro_long_this_block,retro_trials_long_this_block,long_interval_block_finished,long_block_retro_acc,reached_criterion,run_out_of_trials,participant,mapping,date,expName,psychopyVersion,frameRate,
,,,,,,,,,,,,,,0,0,0,0,,,,,,,,,18.798341808000032,None,348.5134362900001,None,348.5134362900001,None,348.5134362900001,None,445.45002474600005,None,482.85048955800016,3,5,0,7,4,6,1,9,1.6,0,0,1,2.9000000000000004,1.6,2.9000000000000004,505.17407844800005,None,505.17407844800005,None,505.17407844800005,None,505.17407844800005,None,505.17407844800005,None,505.17407844800005,None,505.17407844800005,None,505.17407844800005,None,503.86791687000004,504.37439446100007,503.86791687000004,504.37439446100007,503.86791687000004,504.37439446100007,left,1.8117899689998467,505.17407844800005,None,507.0267180139999,None,z,24.31920344299988,507.0267180139999,None,507.0267180139999,None,,,,,,,,,,,,,,,,,,,,,,,,,,,,,,,,,,,,,,,,,,,,,,,,,,,,,,,,,,,,,,,,,,,,,105,32,2022_Sep_22_1228,templeton_exp2A_SD,2020.2.10,75.02113814346028,
,,,,,,,,,,,,,,1,0,1,0,,,,,,,,,,,,,,,,,,,542.9711529240001,4,5,0,9,2,6,1,8,1.6,1,0,5,1.5,1.6,2.1,563.8718350260001,None,563.8718350260001,None,563.8718350260001,None,563.8718350260001,None,563.8718350260001,None,563.8718350260001,None,563.8718350260001,None,563.8718350260001,None,563.9651408720001,564.4716226999999,563.9651408720001,564.4716226999999,563.9651408720001,564.4716226999999,down,2.4206744389998676,563.9651408720001,None,566.417498472,None,x,0.9123529570001665,566.417498472,None,566.417498472,None,,,,,,,,,,,,,,,,,,,,,,,,,,,,,,,,,,,,,,,,,,,,,,,,,,,,,,,,,,,,,,,,,,,,,105,32,2022_Sep_22_1228,templeton_exp2A_SD,2020.2.10,75.02113814346028,
,,,,,,,,,,,,,,2,0,2,0,,,,,,,,,,,,,,,,,,,550.235834202,1,8,0,9,4,6,3,7,1.6,0,1,3,2.9000000000000004,1.6,2.9000000000000004,572.5351874979999,None,572.5351874979999,None,572.5351874979999,None,572.5351874979999,None,572.5351874979999,None,572.5351874979999,None,572.5351874979999,None,572.5351874979999,None,571.242392895,571.748785451,571.242392895,571.748785451,571.242392895,571.748785451,down,1.994661810000025,572.5351874979999,None,574.547745863,None,x,0.35810548799986464,574.547745863,None,574.547745863,None,,,,,,,,,,,,,,,,,,,,,,,,,,,,,,,,,,,,,,,,,,,,,,,,,,,,,,,,,,,,,,,,,,,,,105,32,2022_Sep_22_1228,templeton_exp2A_SD,2020.2.10,75.02113814346028,
,,,,,,,,,,,,,,3,0,3,0,,,,,,,,,,,,,,,,,,,557.7381522860001,1,5,3,6,0,8,4,9,1.6,0,1,2,2.9000000000000004,1.6,2.9000000000000004,580.039047,None,580.039047,None,580.039047,None,580.039047,None,580.039047,None,580.039047,None,580.039047,None,580.039047,None,578.7328524730001,579.239297267,578.7328524730001,579.239297267,578.7328524730001,579.239297267,left,1.026701118000119,580.039047,None,581.091939828,None,z,0.5019182170001386,581.091939828,None,581.091939828,None,,,,,,,,,,,,,,,,,,,,,,,,,,,,,,,,,,,,,,,,,,,,,,,,,,,,,,,,,,,,,,,,,,,,,105,32,2022_Sep_22_1228,templeton_exp2A_SD,2020.2.10,75.02113814346028,
,,,,,,,,,,,,,,4,0,4,0,,,,,,,,,,,,,,,,,,,563.9760841670002,1,9,4,5,0,7,2,8,1.6,1,0,0,1.5,1.6,2.1,584.8771886970001,None,584.8771886970001,None,584.8771886970001,None,584.8771886970001,None,584.8771886970001,None,584.8771886970001,None,584.8771886970001,None,584.8771886970001,None,584.983812833,585.4902995770001,584.983812833,585.4902995770001,584.983812833,585.4902995770001,down,1.7859841540000616,584.983812833,None,586.7831156899999,None,z,0.6347663719998309,586.7831156899999,None,586.7831156899999,None,,,,,,,,,,,,,,,,,,,,,,,,,,,,,,,,,,,,,,,,,,,,,,,,,,,,,,,,,,,,,,,,,,,,,105,32,2022_Sep_22_1228,templeton_exp2A_SD,2020.2.10,75.02113814346028,
,,,,,,,,,,,,,,5,0,5,0,,,,,,,,,,,,,,,,,,,576.652634214,0,7,1,5,2,8,3,9,1.6,1,1,1,1.5,1.6,2.1,597.565754601,None,597.565754601,None,597.565754601,None,597.565754601,None,597.565754601,None,597.565754601,None,597.565754601,None,597.565754601,None,597.658942222,598.16531781,597.658942222,598.16531781,597.658942222,598.16531781,down,3.1829087549999713,597.658942222,None,600.8578320250001,None,z,1.079920907999849,600.8578320250001,None,600.8578320250001,None,,,,,,,,,,,,,,,,,,,,,,,,,,,,,,,,,,,,,,,,,,,,,,,,,,,,,,,,,,,,,,,,,,,,,105,32,2022_Sep_22_1228,templeton_exp2A_SD,2020.2.10,75.02113814346028,
,,,,,,,,,,,,,,6,0,6,0,,,,,,,,,,,,,,,,,,,584.5543096590002,2,6,0,8,1,9,4,5,1.6,1,1,4,1.5,1.6,2.1,605.442766766,None,605.442766766,None,605.442766766,None,605.442766766,None,605.442766766,None,605.442766766,None,605.442766766,None,605.442766766,None,605.54939657,606.0558599589999,605.54939657,606.0558599589999,605.54939657,606.0558599589999,down,1.3805054490001112,605.54939657,None,606.9488003660001,None,z,1.3250517970000146,606.9488003660001,None,606.9488003660001,None,,,,,,,,,,,,,,,,,,,,,,,,,,,,,,,,,,,,,,,,,,,,,,,,,,,,,,,,,,,,,,,,,,,,,105,32,2022_Sep_22_1228,templeton_exp2A_SD,2020.2.10,75.02113814346028,
,,,,,,,,,,,,,,,,,,,,,,0,0,0,0,,,,,,,,,,,,,,,,,,,,,,,,2.05,0.75,2.05,,,,,,,,,,,,,,,,,,,,,,,,,,,,,,,,,,,0,747.1901277930001,3,6,1,5,4,8,2,9,0,1,1,766.035184889,None,3,0,1,5,4,8,2,9,1,768.660916801,None,768.660916801,None,768.660916801,None,768.660916801,None,768.660916801,None,768.660916801,None,768.660916801,None,768.660916801,None,767.3547415630001,767.86115997,767.3547415630001,767.86115997,767.3547415630001,767.86115997,None,None,left,1.300930790999928,768.660916801,None,None,None,z,2.8374596219998693,770.0203880880001,None,772.8725803569998,None,,,,,,,,,105,32,2022_Sep_22_1228,templeton_exp2A_SD,2020.2.10,75.02113814346028,
,,,,,,,,,,,,,,,,,,,,,,1,0,1,0,,,,,,,,,,,,,,,,,,,,,,,,2.05,0.75,2.05,,,,,,,,,,,,,,,,,,,,,,,,,,,,,,,,,,,1,754.6137461149999,1,8,4,6,2,9,0,5,0,0,5,773.4456875130002,None,1,8,4,6,2,9,0,5,2,776.058072521,None,776.058072521,None,776.058072521,None,776.058072521,None,776.058072521,None,776.058072521,None,776.058072521,None,776.058072521,None,774.7652308459999,775.2717304119999,774.7652308459999,775.2717304119999,774.7652308459999,775.2717304119999,None,None,down,0.9757708249999268,776.058072521,None,None,None,z,0.3095109969999612,777.0843421799998,None,777.4175619330001,None,,,,,,,,,105,32,2022_Sep_22_1228,templeton_exp2A_SD,2020.2.10,75.02113814346028,
,,,,,,,,,,,,,,,,,,,,,,2,0,2,0,,,,,,,,,,,,,,,,,,,,,,,,0.65,0.75,1.25,,,,,,,,,,,,,,,,,,,,,,,,,,,,,,,,,,,2,759.1577384640002,3,9,4,6,0,5,2,7,1,1,6,777.9906983230001,None,3,9,4,6,0,5,1,7,2,779.203588829,None,779.203588829,None,779.203588829,None,779.203588829,None,779.203588829,None,779.203588829,None,779.203588829,None,779.203588829,None,779.2968227150002,779.8033492279999,779.2968227150002,779.8033492279999,779.2968227150002,779.8033492279999,None,None,down,1.305026567999903,779.2968227150002,None,None,None,z,0.21480626400034453,780.6430429280001,None,780.88288029,None,,,,,,,,,105,32,2022_Sep_22_1228,templeton_exp2A_SD,2020.2.10,75.02113814346028,
,,,,,,,,,,,,,,,,,,,,,,3,0,3,0,,,,,,,,,,,,,,,,,,,,,,,,0.65,0.75,1.25,,,,,,,,,,,,,,,,,,,,,,,,,,,,,,,,,,,3,762.624775521,0,8,4,7,1,5,3,6,1,1,1,781.469330915,None,0,2,4,7,1,5,3,6,2,782.6822453480002,None,782.6822453480002,None,782.6822453480002,None,782.6822453480002,None,782.6822453480002,None,782.6822453480002,None,782.6822453480002,None,782.6822453480002,None,782.788869143,783.2953916700001,782.788869143,783.2953916700001,782.788869143,783.2953916700001,None,None,down,1.5809877189999497,782.788869143,None,None,None,x,0.22681867900018915,784.4149436209998,None,784.6681351529999,None,,,,,,,,,105,32,2022_Sep_22_1228,templeton_exp2A_SD,2020.2.10,75.02113814346028,
,,,,,,,,,,,,,,,,,,,,,,4,0,4,0,,,,,,,,,,,,,,,,,,,,,,,,2.05,0.75,2.05,,,,,,,,,,,,,,,,,,,,,,,,,,,,,,,,,,,4,766.4078785479999,3,7,0,9,2,6,1,5,0,1,4,785.2412284959998,None,3,7,0,9,4,6,1,5,3,787.8536490610002,None,787.8536490610002,None,787.8536490610002,None,787.8536490610002,None,787.8536490610002,None,787.8536490610002,None,787.8536490610002,None,787.8536490610002,None,786.5473857730001,787.0538763010002,786.5473857730001,787.0538763010002,786.5473857730001,787.0538763010002,None,None,left,1.0762103980000575,787.8536490610002,None,None,None,z,0.26063993100024163,788.973211707,None,789.253043939,None,,,,,,,,,105,32,2022_Sep_22_1228,templeton_exp2A_SD,2020.2.10,75.02113814346028,
,,,,,,,,,,,,,,,,,,,,,,5,0,5,0,,,,,,,,,,,,,,,,,,,,,,,,0.65,0.75,1.25,,,,,,,,,,,,,,,,,,,,,,,,,,,,,,,,,,,5,770.993372186,3,9,2,5,4,7,0,6,1,1,7,789.826161017,None,3,9,2,5,4,7,0,1,3,791.039090518,None,791.039090518,None,791.039090518,None,791.039090518,None,791.039090518,None,791.039090518,None,791.039090518,None,791.039090518,None,791.1457408399999,791.6522384870002,791.1457408399999,791.6522384870002,791.1457408399999,791.6522384870002,None,None,down,1.7041005050000422,791.1457408399999,None,None,None,z,0.23814819200015336,792.8917360309999,None,793.1449029429998,None,,,,,,,,,105,32,2022_Sep_22_1228,templeton_exp2A_SD,2020.2.10,75.02113814346028,
,,,,,,,,,,,,,,,,,,,,,,6,0,6,0,,,,,,,,,,,,,,,,,,,,,,,,0.65,0.75,1.25,,,,,,,,,,,,,,,,,,,,,,,,,,,,,,,,,,,6,774.8862810799999,0,9,4,8,3,5,1,7,1,1,2,793.7180760949998,None,0,9,2,8,3,5,1,7,3,794.9308402260001,None,794.9308402260001,None,794.9308402260001,None,794.9308402260001,None,794.9308402260001,None,794.9308402260001,None,794.9308402260001,None,794.9308402260001,None,795.0375461030001,795.5440419829999,795.0375461030001,795.5440419829999,795.0375461030001,795.5440419829999,None,None,down,0.9403102759997637,795.0375461030001,None,None,None,z,0.2659867560000748,796.0238564849999,None,796.3037241069999,None,,,,,,,,,105,32,2022_Sep_22_1228,templeton_exp2A_SD,2020.2.10,75.02113814346028,
,,,,,,,,,,,,,,,,,,,,,,7,0,7,0,,,,,,,,,,,,,,,,,,,,,,,,2.05,0.75,2.05,,,,,,,,,,,,,,,,,,,,,,,,,,,,,,,,,,,7,778.0453130990002,2,9,4,5,3,7,1,8,0,0,0,796.8901661850002,None,2,9,4,5,3,7,1,8,4,799.5025186290002,None,799.5025186290002,None,799.5025186290002,None,799.5025186290002,None,799.5025186290002,None,799.5025186290002,None,799.5025186290002,None,799.5025186290002,None,798.2097334950001,798.7161906620001,798.2097334950001,798.7161906620001,798.2097334950001,798.7161906620001,None,None,down,1.883319781999944,799.5025186290002,None,None,None,z,0.14278800500005673,801.4350776909998,None,801.5950776279999,None,,,,,,,,,105,32,2022_Sep_22_1228,templeton_exp2A_SD,2020.2.10,75.02113814346028,
,,,,,,,,,,,,,,,,,,,,,,8,0,8,0,,,,,,,,,,,,,,,,,,,,,,,,0.65,0.75,1.25,,,,,,,,,,,,,,,,,,,,,,,,,,,,,,,,,,,8,783.3365468029999,0,7,1,8,4,9,3,6,1,1,5,802.1681972909998,None,0,7,1,8,4,2,3,6,4,803.3810851760002,None,803.3810851760002,None,803.3810851760002,None,803.3810851760002,None,803.3810851760002,None,803.3810851760002,None,803.3810851760002,None,803.3810851760002,None,803.4877123190001,803.9941955060001,803.4877123190001,803.9941955060001,803.4877123190001,803.9941955060001,None,None,down,1.8581338190001588,803.4877123190001,None,None,None,z,0.15218869799991808,805.3936663530001,None,805.5668919289999,None,,,,,,,,,105,32,2022_Sep_22_1228,templeton_exp2A_SD,2020.2.10,75.02113814346028,
,,,,,,,,,,,,,,,,,,,,,,9,0,9,0,,,,,,,,,,,,,,,,,,,,,,,,0.65,0.75,1.25,,,,,,,,,,,,,,,,,,,,,,,,,,,,,,,,,,,9,787.308360794,2,9,4,7,0,8,1,6,1,1,7,806.140010546,None,2,9,4,7,0,8,1,3,4,807.3529166830001,None,807.3529166830001,None,807.3529166830001,None,807.3529166830001,None,807.3529166830001,None,807.3529166830001,None,807.3529166830001,None,807.3529166830001,None,807.4595517680002,807.966016099,807.4595517680002,807.966016099,807.4595517680002,807.966016099,None,None,down,1.1983065419999548,807.4595517680002,None,None,None,z,0.23078364799994233,808.6990685190001,None,808.9522654959999,None,,,,,,,,,105,32,2022_Sep_22_1228,templeton_exp2A_SD,2020.2.10,75.02113814346028,
,,,,,,,,,,,,,,,,,,,,,,10,0,10,0,,,,,,,,,,,,,,,,,,,,,,,,0.65,0.75,1.25,,,,,,,,,,,,,,,,,,,,,,,,,,,,,,,,,,,10,790.6931587920001,1,8,0,6,2,9,4,5,1,0,5,809.5253848149998,None,1,8,0,6,2,9,4,5,4,810.7382847830002,None,810.7382847830002,None,810.7382847830002,None,810.7382847830002,None,810.7382847830002,None,810.7382847830002,None,810.7382847830002,None,810.7382847830002,None,810.8448841940001,811.3513595500001,810.8448841940001,811.3513595500001,810.8448841940001,811.3513595500001,None,None,down,0.9009693630000584,810.8448841940001,None,None,None,z,0.11463095199997042,811.7912283190001,None,811.9244508439999,None,,,,,,,,,105,32,2022_Sep_22_1228,templeton_exp2A_SD,2020.2.10,75.02113814346028,
,,,,,,,,,,,,,,,,,,,,,,11,0,11,0,,,,,,,,,,,,,,,,,,,,,,,,0.65,0.75,1.25,,,,,,,,,,,,,,,,,,,,,,,,,,,,,,,,,,,11,793.6666780410003,4,8,3,6,2,7,1,5,1,1,5,812.5108715079998,None,4,8,3,6,2,0,1,5,4,813.723828641,None,813.723828641,None,813.723828641,None,813.723828641,None,813.723828641,None,813.723828641,None,813.723828641,None,813.723828641,None,813.830421117,814.3369290490002,813.830421117,814.3369290490002,813.830421117,814.3369290490002,None,None,left,0.923422624000068,813.830421117,None,None,None,z,0.11841736199994557,814.803458098,None,814.9366921180001,None,,,,,,,,,105,32,2022_Sep_22_1228,templeton_exp2A_SD,2020.2.10,75.02113814346028,
,,,,,,,,,,,,,,,,,,,,,,12,0,12,0,,,,,,,,,,,,,,,,,,,,,,,,0.65,0.75,1.25,,,,,,,,,,,,,,,,,,,,,,,,,,,,,,,,,,,12,796.6777312199999,0,5,3,8,2,9,4,7,1,0,1,815.509786505,None,0,5,3,8,2,9,4,7,4,816.7226489860002,None,816.7226489860002,None,816.7226489860002,None,816.7226489860002,None,816.7226489860002,None,816.7226489860002,None,816.7226489860002,None,816.7226489860002,None,816.8292774160002,817.335662664,816.8292774160002,817.335662664,816.8292774160002,817.335662664,None,None,down,3.5565330849999555,816.8292774160002,None,None,None,x,0.20594258699975398,820.427920765,None,820.6544819580001,None,,,,,,,,,105,32,2022_Sep_22_1228,templeton_exp2A_SD,2020.2.10,75.02113814346028,
,,,,,,,,,,,,,,,,,,,,,,13,0,13,0,,,,,,,,,,,,,,,,,,,,,,,,2.05,0.75,2.05,,,,,,,,,,,,,,,,,,,,,,,,,,,,,,,,,,,13,802.3946443490001,3,9,4,5,0,8,1,6,0,0,1,821.227601804,None,3,9,4,5,0,8,1,6,5,823.8400039380001,None,823.8400039380001,None,823.8400039380001,None,823.8400039380001,None,823.8400039380001,None,823.8400039380001,None,823.8400039380001,None,823.8400039380001,None,822.5337986400002,823.0403103350002,822.5337986400002,823.0403103350002,822.5337986400002,823.0403103350002,None,None,down,1.9698455729999296,823.8400039380001,None,None,None,z,0.17323144200008755,825.852583229,None,826.0391015799999,None,,,,,,,,,105,32,2022_Sep_22_1228,templeton_exp2A_SD,2020.2.10,75.02113814346028,
,,,,,,,,,,,,,,,,,,,,,,14,0,14,0,,,,,,,,,,,,,,,,,,,,,,,,2.05,0.75,2.05,,,,,,,,,,,,,,,,,,,,,,,,,,,,,,,,,,,14,807.778538758,3,5,0,6,1,8,4,9,0,0,0,826.6122279180001,None,3,5,0,6,1,8,4,9,6,829.2246384570001,None,829.2246384570001,None,829.2246384570001,None,829.2246384570001,None,829.2246384570001,None,829.2246384570001,None,829.2246384570001,None,829.2246384570001,None,827.918498456,828.424934114,827.918498456,828.424934114,827.918498456,828.424934114,None,None,down,0.9531558369999402,829.2246384570001,None,None,None,z,0.44970429900013187,830.2241436500001,None,830.6906797549998,None,,,,,,,,,105,32,2022_Sep_22_1228,templeton_exp2A_SD,2020.2.10,75.02113814346028,
,,,,,,,,,,,,,,,,,,,,,,15,0,15,0,,,,,,,,,,,,,,,,,,,,,,,,0.65,0.75,1.25,,,,,,,,,,,,,,,,,,,,,,,,,,,,,,,,,,,15,816.5989718080002,2,6,0,5,1,7,3,9,1,0,6,835.435559929,None,2,6,0,5,1,7,3,9,6,836.648438807,None,836.648438807,None,836.648438807,None,836.648438807,None,836.648438807,None,836.648438807,None,836.648438807,None,836.648438807,None,836.7549982510002,837.2615968080001,836.7549982510002,837.2615968080001,836.7549982510002,837.2615968080001,None,None,down,1.4548538060003011,836.7549982510002,None,None,None,z,0.10856615400007286,838.2612033399998,None,838.394328571,None,,,,,,,,,105,32,2022_Sep_22_1228,templeton_exp2A_SD,2020.2.10,75.02113814346028,
,,,,,,,,,,,,,,,,,,,,,,16,0,16,0,,,,,,,,,,,,,,,,,,,,,,,,2.05,0.75,2.05,,,,,,,,,,,,,,,,,,,,,,,,,,,,,,,,,,,16,820.135209278,4,6,1,8,3,5,0,9,0,0,3,838.967416276,None,4,6,1,8,3,5,0,9,0,841.5798681899998,None,841.5798681899998,None,841.5798681899998,None,841.5798681899998,None,841.5798681899998,None,841.5798681899998,None,841.5798681899998,None,841.5798681899998,None,840.273767374,840.7800039800002,840.273767374,840.7800039800002,840.273767374,840.7800039800002,None,None,left,0.757978335000189,841.5798681899998,None,None,None,x,0.7102848819999963,842.379564699,None,843.1126413680001,None,,,,,,,,,105,32,2022_Sep_22_1228,templeton_exp2A_SD,2020.2.10,75.02113814346028,
,,,,,,,,,,,,,,,,,,,,,,17,0,17,0,,,,,,,,,,,,,,,,,,,,,,,,0.65,0.75,1.25,,,,,,,,,,,,,,,,,,,,,,,,,,,,,,,,,,,17,824.8533884320002,1,5,2,6,3,7,4,9,1,0,2,843.685763535,None,1,5,2,6,3,7,4,9,0,844.8986173310002,None,844.8986173310002,None,844.8986173310002,None,844.8986173310002,None,844.8986173310002,None,844.8986173310002,None,844.8986173310002,None,844.8986173310002,None,845.0053208520001,845.511813803,845.0053208520001,845.511813803,845.0053208520001,845.511813803,None,None,down,0.9325194640000518,845.0053208520001,None,None,None,z,0.17557500100019752,845.9782735810002,None,846.1782756330001,None,,,,,,,,,105,32,2022_Sep_22_1228,templeton_exp2A_SD,2020.2.10,75.02113814346028,
,,,,,,,,,,,,,,,,,,,,,,18,0,18,0,,,,,,,,,,,,,,,,,,,,,,,,0.65,0.75,1.25,,,,,,,,,,,,,,,,,,,,,,,,,,,,,,,,,,,18,827.9180803310003,1,6,0,8,2,9,3,5,1,0,5,846.7513271260002,None,1,6,0,8,2,9,3,5,0,847.9641650010001,None,847.9641650010001,None,847.9641650010001,None,847.9641650010001,None,847.9641650010001,None,847.9641650010001,None,847.9641650010001,None,847.9641650010001,None,848.057483285,848.5639042300002,848.057483285,848.5639042300002,848.057483285,848.5639042300002,None,None,down,1.0883724909999728,848.057483285,None,None,None,z,0.09950969800001985,849.1903434210001,None,849.3103054830001,None,,,,,,,,,105,32,2022_Sep_22_1228,templeton_exp2A_SD,2020.2.10,75.02113814346028,
,,,,,,,,,,,,,,,,,,,,,,19,0,19,0,,,,,,,,,,,,,,,,,,,,,,,,0.65,0.75,1.25,,,,,,,,,,,,,,,,,,,,,,,,,,,,,,,,,,,19,831.0522813519999,2,8,0,6,4,7,3,5,1,1,0,849.8967543279998,None,1,8,0,6,4,7,3,5,0,851.109657273,None,851.109657273,None,851.109657273,None,851.109657273,None,851.109657273,None,851.109657273,None,851.109657273,None,851.109657273,None,851.2162055410001,851.7227592299998,851.2162055410001,851.7227592299998,851.2162055410001,851.7227592299998,None,None,down,1.0496656639998037,851.2162055410001,None,None,None,z,0.11667385300006572,852.3091742959998,None,852.4424569149999,None,,,,,,,,,105,32,2022_Sep_22_1228,templeton_exp2A_SD,2020.2.10,75.02113814346028,
,,,,,,,,,,,,,,,,,,,,,,20,0,20,0,,,,,,,,,,,,,,,,,,,,,,,,2.05,0.75,2.05,,,,,,,,,,,,,,,,,,,,,,,,,,,,,,,,,,,20,834.1828771090002,4,6,2,9,1,5,0,8,0,1,5,853.0155501279999,None,4,6,2,9,1,3,0,8,1,855.6279269529998,None,855.6279269529998,None,855.6279269529998,None,855.6279269529998,None,855.6279269529998,None,855.6279269529998,None,855.6279269529998,None,855.6279269529998,None,854.3351075100002,854.8413964009999,854.3351075100002,854.8413964009999,854.3351075100002,854.8413964009999,None,None,left,1.1019205389998206,855.6279269529998,None,None,None,z,0.10770982400026696,856.7741626979998,None,856.9074224389999,None,,,,,,,,,105,32,2022_Sep_22_1228,templeton_exp2A_SD,2020.2.10,75.02113814346028,
,,,,,,,,,,,,,,,,,,,,,,21,0,21,0,,,,,,,,,,,,,,,,,,,,,,,,2.05,0.75,2.05,,,,,,,,,,,,,,,,,,,,,,,,,,,,,,,,,,,21,838.6478014510001,2,5,3,6,1,7,4,9,0,1,5,857.4805504960002,None,2,5,3,6,1,0,4,9,2,860.0929154490002,None,860.0929154490002,None,860.0929154490002,None,860.0929154490002,None,860.0929154490002,None,860.0929154490002,None,860.0929154490002,None,860.0929154490002,None,858.786718483,859.2931583020002,858.786718483,859.2931583020002,858.786718483,859.2931583020002,None,None,left,1.0449236409999685,860.0929154490002,None,None,None,z,0.10390811700017366,861.185951493,None,861.3058097609999,None,,,,,,,,,105,32,2022_Sep_22_1228,templeton_exp2A_SD,2020.2.10,75.02113814346028,
,,,,,,,,,,,,,,,,,,,,,,22,0,22,0,,,,,,,,,,,,,,,,,,,,,,,,2.05,0.75,2.05,,,,,,,,,,,,,,,,,,,,,,,,,,,,,,,,,,,22,843.0473067660002,2,8,4,6,1,9,0,7,0,0,2,861.8922175929999,None,2,8,4,6,1,9,0,7,3,864.517881691,None,864.517881691,None,864.517881691,None,864.517881691,None,864.517881691,None,864.517881691,None,864.517881691,None,864.517881691,None,863.211781961,863.7181564059999,863.211781961,863.7181564059999,863.211781961,863.7181564059999,None,None,down,0.7800162209996415,864.517881691,None,None,None,z,0.08154113299997334,865.3442820480002,None,865.4508698880002,None,,,,,,,,,105,32,2022_Sep_22_1228,templeton_exp2A_SD,2020.2.10,75.02113814346028,
,,,,,,,,,,,,,,,,,,,,,,23,0,23,0,,,,,,,,,,,,,,,,,,,,,,,,2.05,0.75,2.05,,,,,,,,,,,,,,,,,,,,,,,,,,,,,,,,,,,23,847.1919317560003,0,8,3,7,4,6,1,9,0,1,5,866.023960148,None,0,8,3,7,4,2,1,9,4,868.6363183880001,None,868.6363183880001,None,868.6363183880001,None,868.6363183880001,None,868.6363183880001,None,868.6363183880001,None,868.6363183880001,None,868.6363183880001,None,867.3434910650001,867.8499898010002,867.3434910650001,867.8499898010002,867.3434910650001,867.8499898010002,None,None,left,1.2695196499998929,868.6363183880001,None,None,None,z,0.061946304999764834,869.9558691539999,None,870.0358158470001,None,,,,,,,,,105,32,2022_Sep_22_1228,templeton_exp2A_SD,2020.2.10,75.02113814346028,
,,,,,,,,,,,,,,,,,,,,,,24,0,24,0,,,,,,,,,,,,,,,,,,,,,,,,2.05,0.75,2.05,,,,,,,,,,,,,,,,,,,,,,,,,,,,,,,,,,,24,851.7766597279999,1,5,2,9,4,7,3,6,0,0,3,870.6088988069998,None,1,5,2,9,4,7,3,6,5,873.2212274350002,None,873.2212274350002,None,873.2212274350002,None,873.2212274350002,None,873.2212274350002,None,873.2212274350002,None,873.2212274350002,None,873.2212274350002,None,871.9284758599999,872.4348541349998,871.9284758599999,872.4348541349998,871.9284758599999,872.4348541349998,None,None,down,0.9166202129999874,873.2212274350002,None,None,None,z,0.11705395300032251,874.1808828189999,None,874.314201933,None,,,,,,,,,105,32,2022_Sep_22_1228,templeton_exp2A_SD,2020.2.10,75.02113814346028,
,,,,,,,,,,,,,,,,,,,,,,25,0,25,0,,,,,,,,,,,,,,,,,,,,,,,,0.65,0.75,1.25,,,,,,,,,,,,,,,,,,,,,,,,,,,,,,,,,,,25,856.0565160369999,2,5,4,8,0,7,3,6,1,0,0,874.9005981409998,None,2,5,4,8,0,7,3,6,5,876.1134809560001,None,876.1134809560001,None,876.1134809560001,None,876.1134809560001,None,876.1134809560001,None,876.1134809560001,None,876.1134809560001,None,876.1134809560001,None,876.2201142030001,876.726573013,876.2201142030001,876.726573013,876.2201142030001,876.726573013,None,None,down,1.7417425020003066,876.2201142030001,None,None,None,x,0.3317689219998101,878.0060809969998,None,878.3526047309999,None,,,,,,,,,105,32,2022_Sep_22_1228,templeton_exp2A_SD,2020.2.10,75.02113814346028,
,,,,,,,,,,,,,,,,,,,,,,26,0,26,0,,,,,,,,,,,,,,,,,,,,,,,,0.65,0.75,1.25,,,,,,,,,,,,,,,,,,,,,,,,,,,,,,,,,,,26,860.0941416359999,2,9,4,8,3,7,1,5,1,1,6,878.9391187120002,None,2,9,4,8,3,7,0,5,5,880.1519892879999,None,880.1519892879999,None,880.1519892879999,None,880.1519892879999,None,880.1519892879999,None,880.1519892879999,None,880.1519892879999,None,880.1519892879999,None,880.2586174229998,880.7650506520001,880.2586174229998,880.7650506520001,880.2586174229998,880.7650506520001,None,None,down,1.0792204210001728,880.2586174229998,None,None,None,z,0.13566591900007552,881.3781915339998,None,881.5380738750002,None,,,,,,,,,105,32,2022_Sep_22_1228,templeton_exp2A_SD,2020.2.10,75.02113814346028,
,,,,,,,,,,,,,,,,,,,,,,27,0,27,0,,,,,,,,,,,,,,,,,,,,,,,,0.65,0.75,1.25,,,,,,,,,,,,,,,,,,,,,,,,,,,,,,,,,,,27,863.2794757540003,2,5,4,7,0,9,1,8,1,1,7,882.1112083400001,None,2,5,4,7,0,9,1,3,5,883.3241127160002,None,883.3241127160002,None,883.3241127160002,None,883.3241127160002,None,883.3241127160002,None,883.3241127160002,None,883.3241127160002,None,883.3241127160002,None,883.4306977409999,883.9371789959998,883.4306977409999,883.9371789959998,883.4306977409999,883.9371789959998,None,None,down,1.0911402169999747,883.4306977409999,None,None,None,z,0.11823149400015609,884.5636276849998,None,884.6969405329999,None,,,,,,,,,105,32,2022_Sep_22_1228,templeton_exp2A_SD,2020.2.10,75.02113814346028,
,,,,,,,,,,,,,,,,,,,,,,28,0,28,0,,,,,,,,,,,,,,,,,,,,,,,,2.05,0.75,2.05,,,,,,,,,,,,,,,,,,,,,,,,,,,,,,,,,,,28,866.4385155920002,1,9,0,7,4,5,2,8,0,0,6,885.2833874800001,None,1,9,0,7,4,5,2,8,6,887.8957393789999,None,887.8957393789999,None,887.8957393789999,None,887.8957393789999,None,887.8957393789999,None,887.8957393789999,None,887.8957393789999,None,887.8957393789999,None,886.6027998520001,887.1093669909999,886.6027998520001,887.1093669909999,886.6027998520001,887.1093669909999,None,None,down,0.6260899399999289,887.8957393789999,None,None,None,z,0.11178393199998027,888.562068216,None,888.6953791829999,None,,,,,,,,,105,32,2022_Sep_22_1228,templeton_exp2A_SD,2020.2.10,75.02113814346028,
,,,,,,,,,,,,,,,,,,,,,,29,0,29,0,,,,,,,,,,,,,,,,,,,,,,,,0.65,0.75,1.25,,,,,,,,,,,,,,,,,,,,,,,,,,,,,,,,,,,29,870.4372948400003,0,7,1,9,4,8,2,5,1,0,0,889.2818284000002,None,0,7,1,9,4,8,2,5,6,890.49473311,None,890.49473311,None,890.49473311,None,890.49473311,None,890.49473311,None,890.49473311,None,890.49473311,None,890.49473311,None,890.6013329280001,891.1077904030001,890.6013329280001,891.1077904030001,890.6013329280001,891.1077904030001,None,None,down,0.7844752409996545,890.6013329280001,None,None,None,z,0.15813955699968574,891.4277199690002,None,891.6010110740001,None,,,,,,,,,105,32,2022_Sep_22_1228,templeton_exp2A_SD,2020.2.10,75.02113814346028,
,,,,,,,,,,,,,,,,,,,,,,30,0,30,0,,,,,,,,,,,,,,,,,,,,,,,,2.05,0.75,2.05,,,,,,,,,,,,,,,,,,,,,,,,,,,,,,,,,,,30,874.496623581,0,6,3,9,1,5,4,8,0,1,6,893.3336179700002,None,0,6,3,9,1,5,2,8,7,895.9459675260002,None,895.9459675260002,None,895.9459675260002,None,895.9459675260002,None,895.9459675260002,None,895.9459675260002,None,895.9459675260002,None,895.9459675260002,None,894.6398250780001,895.1462955250001,894.6398250780001,895.1462955250001,894.6398250780001,895.1462955250001,None,None,left,1.0478780880002887,895.9459675260002,None,None,None,z,0.10686267400024008,897.038894048,None,897.1721665399998,None,,,,,,,,,105,32,2022_Sep_22_1228,templeton_exp2A_SD,2020.2.10,75.02113814346028,
,,,,,,,,,,,,,,,,,,,,,,31,0,31,0,,,,,,,,,,,,,,,,,,,,,,,,2.05,0.75,2.05,,,,,,,,,,,,,,,,,,,,,,,,,,,,,,,,,,,31,878.9127158190001,3,6,4,9,2,7,0,5,0,0,1,897.745285322,None,3,6,4,9,2,7,0,5,8,900.3576791869998,None,900.3576791869998,None,900.3576791869998,None,900.3576791869998,None,900.3576791869998,None,900.3576791869998,None,900.3576791869998,None,900.3576791869998,None,899.064789327,899.571300542,899.064789327,899.571300542,899.064789327,899.571300542,None,None,down,1.5721217179998348,900.3576791869998,None,None,None,x,0.1354551370000081,901.9703947400001,None,902.13033126,None,1,,,,,,,,105,32,2022_Sep_22_1228,templeton_exp2A_SD,2020.2.10,75.02113814346028,
,,,,,,,,,,,,,,,,,,,,,,32,0,32,0,,,,,,,,,,,,,,,,,,,,,,,,2.9000000000000004,1.6,2.9000000000000004,,,,,,,,,,,,,,,,,,,,,,,,,,,,,,,,,,,32,883.8707801600001,3,5,1,9,2,8,4,6,0,0,6,902.7034055689999,None,3,5,1,9,2,8,4,6,,906.168805435,None,906.168805435,None,906.168805435,None,906.168805435,None,906.168805435,None,906.168805435,None,906.168805435,None,906.168805435,None,904.8625940559998,905.369038517,904.8625940559998,905.369038517,904.8625940559998,905.369038517,None,None,down,0.8649880349998966,906.168805435,None,None,None,z,0.07871100100010153,907.075127458,None,907.1683798410002,None,,0,1,1,,,,,105,32,2022_Sep_22_1228,templeton_exp2A_SD,2020.2.10,75.02113814346028,
,,,,,,,,,,,,,,,,,,,,,,33,0,33,0,,,,,,,,,,,,,,,,,,,,,,,,2.9000000000000004,1.6,2.9000000000000004,,,,,,,,,,,,,,,,,,,,,,,,,,,,,,,,,,,33,888.9090446369999,3,6,1,9,4,7,2,5,0,0,2,907.7415225100001,None,3,6,1,9,4,7,2,5,,911.206899435,None,911.206899435,None,911.206899435,None,911.206899435,None,911.206899435,None,911.206899435,None,911.206899435,None,911.206899435,None,909.9006836169999,910.4072385080001,909.9006836169999,910.4072385080001,909.9006836169999,910.4072385080001,None,None,down,1.2589333650003027,911.206899435,None,None,None,x,0.10485976500012839,912.5129997770002,None,912.6330286700002,None,,1,2,2,,,,,105,32,2022_Sep_22_1228,templeton_exp2A_SD,2020.2.10,75.02113814346028,
,,,,,,,,,,,,,,,,,,,,,,34,0,34,0,,,,,,,,,,,,,,,,,,,,,,,,2.9,3.0,3.5,,,,,,,,,,,,,,,,,,,,,,,,,,,,,,,,,,,34,894.373153542,0,7,1,9,4,5,3,6,1,0,2,913.2060830339999,None,0,7,1,9,4,5,3,6,,916.6715009060001,None,916.6715009060001,None,916.6715009060001,None,916.6715009060001,None,916.6715009060001,None,916.6715009060001,None,916.6715009060001,None,916.6715009060001,None,916.7647128689998,917.271224204,916.7647128689998,917.271224204,916.7647128689998,917.271224204,None,None,down,0.8530409850000069,916.7647128689998,None,None,None,x,0.09607037899968418,917.6577801010001,None,917.7776765860001,None,,2,2,2,,,,,105,32,2022_Sep_22_1228,templeton_exp2A_SD,2020.2.10,75.02113814346028,
,,,,,,,,,,,,,,,,,,,,,,35,0,35,0,,,,,,,,,,,,,,,,,,,,,,,,2.9000000000000004,1.6,2.9000000000000004,,,,,,,,,,,,,,,,,,,,,,,,,,,,,,,,,,,35,899.5183044120001,1,5,2,7,3,6,4,9,0,1,4,918.3508371099999,None,1,5,2,7,0,6,4,9,,921.8161839450001,None,921.8161839450001,None,921.8161839450001,None,921.8161839450001,None,921.8161839450001,None,921.8161839450001,None,921.8161839450001,None,921.8161839450001,None,920.5100407809998,921.0164807090002,920.5100407809998,921.0164807090002,920.5100407809998,921.0164807090002,None,None,left,1.6256502900000669,921.8161839450001,None,None,None,c,0.8636817640003756,923.482177997,None,924.3618542450001,None,,3,3,3,,,,,105,32,2022_Sep_22_1228,templeton_exp2A_SD,2020.2.10,75.02113814346028,
,,,,,,,,,,,,,,,,,,,,,,36,0,36,0,,,,,,,,,,,,,,,,,,,,,,,,3.5,3.6,4.1,,,,,,,,,,,,,,,,,,,,,,,,,,,,,,,,,,,36,906.102366286,2,5,3,6,1,9,4,8,1,1,1,924.9349642909999,None,2,0,3,6,1,9,4,8,,929.000111605,None,929.000111605,None,929.000111605,None,929.000111605,None,929.000111605,None,929.000111605,None,929.000111605,None,929.000111605,None,929.0934617529999,929.5998908610002,929.0934617529999,929.5998908610002,929.0934617529999,929.5998908610002,None,None,down,3.3643783939996865,929.0934617529999,None,None,None,x,0.27235396099968057,932.5054965480001,None,932.798734878,None,,4,3,3,,,,,105,32,2022_Sep_22_1228,templeton_exp2A_SD,2020.2.10,75.02113814346028,
,,,,,,,,,,,,,,,,,,,,,,37,0,37,0,,,,,,,,,,,,,,,,,,,,,,,,2.9,3.0,3.5,,,,,,,,,,,,,,,,,,,,,,,,,,,,,,,,,,,37,914.53944342,1,7,4,9,2,6,3,5,1,0,4,933.3718319120001,None,1,7,4,9,2,6,3,5,,936.8372245829999,None,936.8372245829999,None,936.8372245829999,None,936.8372245829999,None,936.8372245829999,None,936.8372245829999,None,936.8372245829999,None,936.8372245829999,None,936.9304338300001,937.4369669959999,936.9304338300001,937.4369669959999,936.9304338300001,937.4369669959999,None,None,left,2.831409693000296,936.9304338300001,None,None,None,x,0.16846449600006963,939.8093999969999,None,939.9959260180001,None,,5,3,3,,,,,105,32,2022_Sep_22_1228,templeton_exp2A_SD,2020.2.10,75.02113814346028,
,,,,,,,,,,,,,,,,,,,,,,38,0,38,0,,,,,,,,,,,,,,,,,,,,,,,,2.3000000000000003,2.4000000000000004,2.9000000000000004,,,,,,,,,,,,,,,,,,,,,,,,,,,,,,,,,,,38,921.7373370329999,0,8,3,9,4,5,1,7,1,0,7,940.5690612440001,None,0,8,3,9,4,5,1,7,,943.4344862830001,None,943.4344862830001,None,943.4344862830001,None,943.4344862830001,None,943.4344862830001,None,943.4344862830001,None,943.4344862830001,None,943.4344862830001,None,943.5279031930002,944.0344047579999,943.5279031930002,944.0344047579999,943.5279031930002,944.0344047579999,None,None,down,1.057940255000176,943.5279031930002,None,None,None,x,0.18365527100013423,944.6342084260002,None,944.83409005,None,,6,3,3,,,,,105,32,2022_Sep_22_1228,templeton_exp2A_SD,2020.2.10,75.02113814346028,
,,,,,,,,,,,,,,,,,,,,,,39,0,39,0,,,,,,,,,,,,,,,,,,,,,,,,2.9000000000000004,1.6,2.9000000000000004,,,,,,,,,,,,,,,,,,,,,,,,,,,,,,,,,,,39,926.5763163950003,4,7,0,8,3,6,1,5,0,0,3,945.420640216,None,4,7,0,8,3,6,1,5,,948.8859246099998,None,948.8859246099998,None,948.8859246099998,None,948.8859246099998,None,948.8859246099998,None,948.8859246099998,None,948.8859246099998,None,948.8859246099998,None,947.5930996180002,948.0995203780001,947.5930996180002,948.0995203780001,947.5930996180002,948.0995203780001,None,None,left,1.0599333290001596,948.8859246099998,None,None,None,z,0.3136633270000857,949.992195222,None,950.325353688,None,,7,3,4,,,,,105,32,2022_Sep_22_1228,templeton_exp2A_SD,2020.2.10,75.02113814346028,
,,,,,,,,,,,,,,,,,,,,,,40,0,40,0,,,,,,,,,,,,,,,,,,,,,,,,1.5,1.6,2.1,,,,,,,,,,,,,,,,,,,,,,,,,,,,,,,,,,,40,932.0657725070002,2,5,3,9,0,8,4,6,1,0,4,950.8985547700001,None,2,5,3,9,0,8,4,6,,952.964377048,None,952.964377048,None,952.964377048,None,952.964377048,None,952.964377048,None,952.964377048,None,952.964377048,None,952.964377048,None,953.057690587,953.564137608,953.057690587,953.564137608,953.057690587,953.564137608,None,None,down,1.0321574350000446,953.057690587,None,None,None,z,0.7284712539999418,954.1373075959998,None,954.883635634,None,,8,3,4,,,,,105,32,2022_Sep_22_1228,templeton_exp2A_SD,2020.2.10,75.02113814346028,
,,,,,,,,,,,,,,,,,,,,,,41,0,41,0,,,,,,,,,,,,,,,,,,,,,,,,2.9000000000000004,1.6,2.9000000000000004,,,,,,,,,,,,,,,,,,,,,,,,,,,,,,,,,,,41,936.6232668999999,2,6,3,9,1,5,0,8,0,1,6,955.4567651089999,None,2,6,3,9,1,5,4,8,,958.9221433529999,None,958.9221433529999,None,958.9221433529999,None,958.9221433529999,None,958.9221433529999,None,958.9221433529999,None,958.9221433529999,None,958.9221433529999,None,957.6159323859999,958.1223974100001,957.6159323859999,958.1223974100001,957.6159323859999,958.1223974100001,None,None,left,1.1196016149997376,958.9221433529999,None,None,None,z,0.11221674100033852,960.0816344349998,None,960.2149262710002,None,,9,4,5,,,,,105,32,2022_Sep_22_1228,templeton_exp2A_SD,2020.2.10,75.02113814346028,
,,,,,,,,,,,,,,,,,,,,,,42,0,42,0,,,,,,,,,,,,,,,,,,,,,,,,3.5,3.6,4.1,,,,,,,,,,,,,,,,,,,,,,,,,,,,,,,,,,,42,941.9560022070002,4,9,2,7,3,5,1,6,1,1,5,960.788067229,None,4,9,2,7,3,0,1,6,,964.8532611500002,None,964.8532611500002,None,964.8532611500002,None,964.8532611500002,None,964.8532611500002,None,964.8532611500002,None,964.8532611500002,None,964.8532611500002,None,964.9465015580001,965.452923302,964.9465015580001,965.452923302,964.9465015580001,965.452923302,None,None,left,1.5592938389995652,964.9465015580001,None,None,None,z,0.08793121100006829,966.5459203580001,None,966.6524830840001,None,,10,4,5,,,,,105,32,2022_Sep_22_1228,templeton_exp2A_SD,2020.2.10,75.02113814346028,
,,,,,,,,,,,,,,,,,,,,,,43,0,43,0,,,,,,,,,,,,,,,,,,,,,,,,2.9000000000000004,1.6,2.9000000000000004,,,,,,,,,,,,,,,,,,,,,,,,,,,,,,,,,,,43,948.3945608209999,1,7,4,9,0,5,2,8,0,1,0,967.2389732660001,None,3,7,4,9,0,5,2,8,,970.7043545220001,None,970.7043545220001,None,970.7043545220001,None,970.7043545220001,None,970.7043545220001,None,970.7043545220001,None,970.7043545220001,None,970.7043545220001,None,969.4115051619999,969.9179223210001,969.4115051619999,969.9179223210001,969.4115051619999,969.9179223210001,None,None,left,1.80949078499998,970.7043545220001,None,None,None,z,0.07687164799972379,972.5569783640001,None,972.6502655090001,None,,11,5,6,,,,,105,32,2022_Sep_22_1228,templeton_exp2A_SD,2020.2.10,75.02113814346028,
,,,,,,,,,,,,,,,,,,,,,,44,0,44,0,,,,,,,,,,,,,,,,,,,,,,,,2.9,3.0,3.5,,,,,,,,,,,,,,,,,,,,,,,,,,,,,,,,,,,44,954.3899599050003,2,5,0,7,1,9,3,6,1,0,7,973.22339528,None,2,5,0,7,1,9,3,6,,976.6887597269999,None,976.6887597269999,None,976.6887597269999,None,976.6887597269999,None,976.6887597269999,None,976.6887597269999,None,976.6887597269999,None,976.6887597269999,None,976.782007005,977.2885257599999,976.782007005,977.2885257599999,976.782007005,977.2885257599999,None,None,down,1.2518381719996796,976.782007005,None,None,None,z,0.1829719020001903,978.074886529,None,978.2747820840002,None,,12,5,6,,,,,105,32,2022_Sep_22_1228,templeton_exp2A_SD,2020.2.10,75.02113814346028,
,,,,,,,,,,,,,,,,,,,,,,45,0,45,0,,,,,,,,,,,,,,,,,,,,,,,,2.9000000000000004,1.6,2.9000000000000004,,,,,,,,,,,,,,,,,,,,,,,,,,,,,,,,,,,45,961.2256918280002,2,9,0,6,1,7,4,8,0,1,0,980.060773126,None,3,9,0,6,1,7,4,8,,983.5261551209999,None,983.5261551209999,None,983.5261551209999,None,983.5261551209999,None,983.5261551209999,None,983.5261551209999,None,983.5261551209999,None,983.5261551209999,None,982.233283324,982.739798155,982.233283324,982.739798155,982.233283324,982.739798155,None,None,left,1.0676016339998569,983.5261551209999,None,None,None,z,0.22817633400018167,984.6456821730001,None,984.8989186840001,None,,13,6,7,,,,,105,32,2022_Sep_22_1228,templeton_exp2A_SD,2020.2.10,75.02113814346028,
,,,,,,,,,,,,,,,,,,,,,,46,0,46,0,,,,,,,,,,,,,,,,,,,,,,,,2.9000000000000004,1.6,2.9000000000000004,,,,,,,,,,,,,,,,,,,,,,,,,,,,,,,,,,,46,966.639956412,3,5,4,6,2,9,1,7,0,1,0,985.4720578899999,None,0,5,4,6,2,9,1,7,,988.9374345379999,None,988.9374345379999,None,988.9374345379999,None,988.9374345379999,None,988.9374345379999,None,988.9374345379999,None,988.9374345379999,None,988.9374345379999,None,987.6312506800002,988.137733797,987.6312506800002,988.137733797,987.6312506800002,988.137733797,None,None,left,0.9684100380000018,988.9374345379999,None,None,None,z,0.12349924399995871,989.950349297,None,990.0970444970001,None,,14,7,8,,,,,105,32,2022_Sep_22_1228,templeton_exp2A_SD,2020.2.10,75.02113814346028,
,,,,,,,,,,,,,,,,,,,,,,47,0,47,0,,,,,,,,,,,,,,,,,,,,,,,,2.9000000000000004,1.6,2.9000000000000004,,,,,,,,,,,,,,,,,,,,,,,,,,,,,,,,,,,47,971.8390999139999,3,8,4,5,2,9,1,7,0,0,3,990.6833818409998,None,3,8,4,5,2,9,1,7,,994.1487810360002,None,994.1487810360002,None,994.1487810360002,None,994.1487810360002,None,994.1487810360002,None,994.1487810360002,None,994.1487810360002,None,994.1487810360002,None,992.8559755389999,993.362398562,992.8559755389999,993.362398562,992.8559755389999,993.362398562,None,None,down,1.9490533410003081,994.1487810360002,None,None,None,x,0.2137842269999055,996.1479844429998,None,996.3879066000002,None,,15,8,9,,,,,105,32,2022_Sep_22_1228,templeton_exp2A_SD,2020.2.10,75.02113814346028,
,,,,,,,,,,,,,,,,,,,,,,48,0,48,0,,,,,,,,,,,,,,,,,,,,,,,,1.5,1.6,2.1,,,,,,,,,,,,,,,,,,,,,,,,,,,,,,,,,,,48,978.1271771439999,3,5,1,8,2,9,0,6,1,0,6,996.9610028509999,None,3,5,1,8,2,9,0,6,,999.0268739139999,None,999.0268739139999,None,999.0268739139999,None,999.0268739139999,None,999.0268739139999,None,999.0268739139999,None,999.0268739139999,None,999.0268739139999,None,999.120166597,999.6268090370002,999.120166597,999.6268090370002,999.120166597,999.6268090370002,None,None,down,0.9296486090001963,999.120166597,None,None,None,z,0.17263866800021788,1000.0932095430001,None,1000.2797675069999,None,,16,8,9,,,,,105,32,2022_Sep_22_1228,templeton_exp2A_SD,2020.2.10,75.02113814346028,
,,,,,,,,,,,,,,,,,,,,,,49,0,49,0,,,,,,,,,,,,,,,,,,,,,,,,2.9000000000000004,1.6,2.9000000000000004,,,,,,,,,,,,,,,,,,,,,,,,,,,,,,,,,,,49,982.021639067,4,8,1,7,2,6,3,5,0,1,3,1000.8662212920001,None,4,8,1,0,2,6,3,5,,1004.3316191639999,None,1004.3316191639999,None,1004.3316191639999,None,1004.3316191639999,None,1004.3316191639999,None,1004.3316191639999,None,1004.3316191639999,None,1004.3316191639999,None,1003.0254443440001,1003.5319127199998,1003.0254443440001,1003.5319127199998,1003.0254443440001,1003.5319127199998,None,None,left,1.6222280590000082,1004.3316191639999,None,None,None,x,0.6842062189998614,1005.9976052069999,None,1006.7039929579998,None,,17,9,10,,,,,105,32,2022_Sep_22_1228,templeton_exp2A_SD,2020.2.10,75.02113814346028,
,,,,,,,,,,,,,,,,,,,,,,50,0,50,0,,,,,,,,,,,,,,,,,,,,,,,,2.3000000000000003,2.4000000000000004,2.9000000000000004,,,,,,,,,,,,,,,,,,,,,,,,,,,,,,,,,,,50,988.4439592659999,0,7,3,9,1,6,2,5,1,1,3,1007.277113765,None,0,7,3,4,1,6,2,5,,1010.1427237280002,None,1010.1427237280002,None,1010.1427237280002,None,1010.1427237280002,None,1010.1427237280002,None,1010.1427237280002,None,1010.1427237280002,None,1010.1427237280002,None,1010.2493374990001,1010.7558453620002,1010.2493374990001,1010.7558453620002,1010.2493374990001,1010.7558453620002,None,None,down,2.400413046000267,1010.2493374990001,None,None,None,x,0.23612360400011312,1012.701721869,None,1012.95494682,None,,18,9,10,,,,,105,32,2022_Sep_22_1228,templeton_exp2A_SD,2020.2.10,75.02113814346028,
,,,,,,,,,,,,,,,,,,,,,,51,0,51,0,,,,,,,,,,,,,,,,,,,,,,,,2.9000000000000004,1.6,2.9000000000000004,,,,,,,,,,,,,,,,,,,,,,,,,,,,,,,,,,,51,994.6953019660002,2,9,3,8,0,5,1,6,0,0,2,1013.5280790730001,None,2,9,3,8,0,5,1,6,,1016.993485193,None,1016.993485193,None,1016.993485193,None,1016.993485193,None,1016.993485193,None,1016.993485193,None,1016.993485193,None,1016.993485193,None,1015.6872596689998,1016.1938358680002,1015.6872596689998,1016.1938358680002,1015.6872596689998,1016.1938358680002,None,None,down,0.7843583839999155,1016.993485193,None,None,None,z,0.4459246199999143,1017.8198434150002,None,1018.286256268,None,,19,10,11,,,,,105,32,2022_Sep_22_1228,templeton_exp2A_SD,2020.2.10,75.02113814346028,
,,,,,,,,,,,,,,,,,,,,,,52,0,52,0,,,,,,,,,,,,,,,,,,,,,,,,2.9,3.0,3.5,,,,,,,,,,,,,,,,,,,,,,,,,,,,,,,,,,,52,1000.02632487,1,6,0,7,3,9,4,5,1,0,7,1018.8593706290001,None,1,6,0,7,3,9,4,5,,1022.3247992529998,None,1022.3247992529998,None,1022.3247992529998,None,1022.3247992529998,None,1022.3247992529998,None,1022.3247992529998,None,1022.3247992529998,None,1022.3247992529998,None,1022.418031557,1022.9245275229998,1022.418031557,1022.9245275229998,1022.418031557,1022.9245275229998,None,None,down,1.4397239780000746,1022.418031557,None,None,None,z,0.09903387400026986,1023.910817271,None,1024.030780112,None,,20,10,11,,,,,105,32,2022_Sep_22_1228,templeton_exp2A_SD,2020.2.10,75.02113814346028,
,,,,,,,,,,,,,,,,,,,,,,53,0,53,0,,,,,,,,,,,,,,,,,,,,,,,,2.9000000000000004,1.6,2.9000000000000004,,,,,,,,,,,,,,,,,,,,,,,,,,,,,,,,,,,53,1005.7714791370001,1,5,4,6,2,9,0,8,0,1,6,1024.603910859,None,1,5,4,6,2,9,3,8,,1028.0692471670002,None,1028.0692471670002,None,1028.0692471670002,None,1028.0692471670002,None,1028.0692471670002,None,1028.0692471670002,None,1028.0692471670002,None,1028.0692471670002,None,1026.7631080130002,1027.2695037619999,1026.7631080130002,1027.2695037619999,1026.7631080130002,1027.2695037619999,None,None,left,1.0045897710001555,1028.0692471670002,None,None,None,z,0.10369170400008443,1029.122170893,None,1029.242109981,None,,21,11,12,,,,,105,32,2022_Sep_22_1228,templeton_exp2A_SD,2020.2.10,75.02113814346028,
,,,,,,,,,,,,,,,,,,,,,,54,0,54,0,,,,,,,,,,,,,,,,,,,,,,,,2.9000000000000004,1.6,2.9000000000000004,,,,,,,,,,,,,,,,,,,,,,,,,,,,,,,,,,,54,1010.9829604640001,1,8,0,7,3,5,2,6,0,1,2,1029.8152240900001,None,1,8,4,7,3,5,2,6,,1033.280612882,None,1033.280612882,None,1033.280612882,None,1033.280612882,None,1033.280612882,None,1033.280612882,None,1033.280612882,None,1033.280612882,None,1031.9877880360002,1032.4942673050002,1031.9877880360002,1032.4942673050002,1031.9877880360002,1032.4942673050002,None,None,left,0.9851861810002447,1033.280612882,None,None,None,z,0.04694567700016705,1034.306912843,None,1034.373546083,None,,22,12,13,,,,,105,32,2022_Sep_22_1228,templeton_exp2A_SD,2020.2.10,75.02113814346028,
,,,,,,,,,,,,,,,,,,,,,,55,0,55,0,,,,,,,,,,,,,,,,,,,,,,,,2.9000000000000004,1.6,2.9000000000000004,,,,,,,,,,,,,,,,,,,,,,,,,,,,,,,,,,,55,1016.112982844,0,5,1,9,3,7,2,6,0,0,4,1034.946656034,None,0,5,1,9,3,7,2,6,,1038.4120409270001,None,1038.4120409270001,None,1038.4120409270001,None,1038.4120409270001,None,1038.4120409270001,None,1038.4120409270001,None,1038.4120409270001,None,1038.4120409270001,None,1037.105851177,1037.612343558,1037.105851177,1037.612343558,1037.105851177,1037.612343558,None,None,down,1.0297971720001442,1038.4120409270001,None,None,None,z,0.11823918700019931,1039.491620388,None,1039.6248507930002,None,,23,13,14,,,,,105,32,2022_Sep_22_1228,templeton_exp2A_SD,2020.2.10,75.02113814346028,
,,,,,,,,,,,,,,,,,,,,,,56,0,56,0,,,,,,,,,,,,,,,,,,,,,,,,2.9000000000000004,1.6,2.9000000000000004,,,,,,,,,,,,,,,,,,,,,,,,,,,,,,,,,,,56,1021.3660236040002,1,5,2,9,0,8,3,7,0,0,7,1040.1979662340002,None,1,5,2,9,0,8,3,7,,1043.676658656,None,1043.676658656,None,1043.676658656,None,1043.676658656,None,1043.676658656,None,1043.676658656,None,1043.676658656,None,1043.676658656,None,1042.3704943710002,1042.8769943969999,1042.3704943710002,1042.8769943969999,1042.3704943710002,1042.8769943969999,None,None,down,0.9171723330000532,1043.676658656,None,None,None,z,0.07758152600035828,1044.6362961759999,None,1044.729579434,None,,24,14,15,,,,,105,32,2022_Sep_22_1228,templeton_exp2A_SD,2020.2.10,75.02113814346028,
,,,,,,,,,,,,,,,,,,,,,,57,0,57,0,,,,,,,,,,,,,,,,,,,,,,,,1.5,1.6,2.1,,,,,,,,,,,,,,,,,,,,,,,,,,,,,,,,,,,57,1026.469747293,1,6,2,5,0,8,4,9,1,0,3,1045.3027037,None,1,6,2,5,0,8,4,9,,1047.3686053479998,None,1047.3686053479998,None,1047.3686053479998,None,1047.3686053479998,None,1047.3686053479998,None,1047.3686053479998,None,1047.3686053479998,None,1047.3686053479998,None,1047.4619412579998,1047.968355317,1047.4619412579998,1047.968355317,1047.4619412579998,1047.968355317,None,None,down,1.1719069850000778,1047.4619412579998,None,None,None,x,0.3110391029999846,1048.6748146379998,None,1049.0079598670002,None,,25,14,15,,,,,105,32,2022_Sep_22_1228,templeton_exp2A_SD,2020.2.10,75.02113814346028,
,,,,,,,,,,,,,,,,,,,,,,58,0,58,0,,,,,,,,,,,,,,,,,,,,,,,,2.3000000000000003,2.4000000000000004,2.9000000000000004,,,,,,,,,,,,,,,,,,,,,,,,,,,,,,,,,,,58,1030.750152626,3,7,1,5,4,6,2,8,1,0,3,1049.594444729,None,3,7,1,5,4,6,2,8,,1052.4600366739999,None,1052.4600366739999,None,1052.4600366739999,None,1052.4600366739999,None,1052.4600366739999,None,1052.4600366739999,None,1052.4600366739999,None,1052.4600366739999,None,1052.5666460109999,1053.073127074,1052.5666460109999,1053.073127074,1052.5666460109999,1053.073127074,None,None,down,0.843200195999998,1052.5666460109999,None,None,None,z,0.19021978599994327,1053.459633744,None,1053.6728704280001,None,,26,14,15,,,,,105,32,2022_Sep_22_1228,templeton_exp2A_SD,2020.2.10,75.02113814346028,
,,,,,,,,,,,,,,,,,,,,,,59,0,59,0,,,,,,,,,,,,,,,,,,,,,,,,1.9,2.0,2.5,,,,,,,,,,,,,,,,,,,,,,,,,,,,,,,,,,,59,1035.4124216440002,1,5,0,8,4,6,3,9,1,1,4,1054.245989721,None,1,5,0,8,2,6,3,9,,1056.7117933390002,None,1056.7117933390002,None,1056.7117933390002,None,1056.7117933390002,None,1056.7117933390002,None,1056.7117933390002,None,1056.7117933390002,None,1056.7117933390002,None,1056.805055813,1057.311519647,1056.805055813,1057.311519647,1056.805055813,1057.311519647,None,None,down,1.9007854110000153,1056.805055813,None,None,None,x,0.12293395100005,1058.7509185760002,None,1058.8975688449998,None,,27,14,15,,,,,105,32,2022_Sep_22_1228,templeton_exp2A_SD,2020.2.10,75.02113814346028,
,,,,,,,,,,,,,,,,,,,,,,60,0,60,0,,,,,,,,,,,,,,,,,,,,,,,,2.1,2.2,2.7,,,,,,,,,,,,,,,,,,,,,,,,,,,,,,,,,,,60,1041.715188345,4,9,1,8,2,7,0,6,1,1,1,1060.5502764629998,None,4,3,1,8,2,7,0,6,,1063.215909632,None,1063.215909632,None,1063.215909632,None,1063.215909632,None,1063.215909632,None,1063.215909632,None,1063.215909632,None,1063.215909632,None,1063.3225850340002,1063.8290585470002,1063.3225850340002,1063.8290585470002,1063.3225850340002,1063.8290585470002,None,None,down,1.319265693000034,1063.3225850340002,None,None,None,x,0.3278346909996799,1064.6820298730001,None,1065.028564549,None,,28,14,15,,,,,105,32,2022_Sep_22_1228,templeton_exp2A_SD,2020.2.10,75.02113814346028,
,,,,,,,,,,,,,,,,,,,,,,61,0,61,0,,,,,,,,,,,,,,,,,,,,,,,,2.9000000000000004,1.6,2.9000000000000004,,,,,,,,,,,,,,,,,,,,,,,,,,,,,,,,,,,61,1046.769703048,2,7,3,9,0,8,1,5,0,0,2,1065.60168095,None,2,7,3,9,0,8,1,5,,1069.067039366,None,1069.067039366,None,1069.067039366,None,1069.067039366,None,1069.067039366,None,1069.067039366,None,1069.067039366,None,1069.067039366,None,1067.7609156259998,1068.2673182300002,1067.7609156259998,1068.2673182300002,1067.7609156259998,1068.2673182300002,None,None,down,0.8307570860001761,1069.067039366,None,None,None,x,0.15920325699971727,1069.946682901,None,1070.11995272,None,,29,15,16,,,,,105,32,2022_Sep_22_1228,templeton_exp2A_SD,2020.2.10,75.02113814346028,
,,,,,,,,,,,,,,,,,,,,,,62,0,62,0,,,,,,,,,,,,,,,,,,,,,,,,3.3000000000000003,3.4000000000000004,3.9000000000000004,,,,,,,,,,,,,,,,,,,,,,,,,,,,,,,,,,,62,1051.861736059,2,9,4,6,0,7,1,8,1,1,5,1070.7064417620002,None,2,9,4,6,0,3,1,8,,1074.5716655449999,None,1074.5716655449999,None,1074.5716655449999,None,1074.5716655449999,None,1074.5716655449999,None,1074.5716655449999,None,1074.5716655449999,None,1074.5716655449999,None,1074.6649086129999,1075.171379064,1074.6649086129999,1075.171379064,1074.6649086129999,1075.171379064,None,None,left,1.3049463809998088,1074.6649086129999,None,None,None,z,0.18274695099989913,1076.0111141210002,None,1076.2109773959999,None,,30,15,16,,,,,105,32,2022_Sep_22_1228,templeton_exp2A_SD,2020.2.10,75.02113814346028,
,,,,,,,,,,,,,,,,,,,,,,63,0,63,0,,,,,,,,,,,,,,,,,,,,,,,,2.9000000000000004,1.6,2.9000000000000004,,,,,,,,,,,,,,,,,,,,,,,,,,,,,,,,,,,63,1057.9527307660003,0,5,3,6,2,8,4,7,0,1,2,1076.797469108,None,0,5,1,6,2,8,4,7,,1080.2628045069998,None,1080.2628045069998,None,1080.2628045069998,None,1080.2628045069998,None,1080.2628045069998,None,1080.2628045069998,None,1080.2628045069998,None,1080.2628045069998,None,1078.969989205,1079.476464017,1078.969989205,1079.476464017,1078.969989205,1079.476464017,None,None,left,2.2909757840002385,1080.2628045069998,None,None,None,x,0.47853354599965314,1082.5953119150001,None,1083.0883846570002,None,,31,16,17,,,,,105,32,2022_Sep_22_1228,templeton_exp2A_SD,2020.2.10,75.02113814346028,
,,,,,,,,,,,,,,,,,,,,,,64,0,64,0,,,,,,,,,,,,,,,,,,,,,,,,1.5,1.6,2.1,,,,,,,,,,,,,,,,,,,,,,,,,,,,,,,,,,,64,1064.8281994390002,1,8,4,6,3,9,0,5,1,1,1,1083.661519124,None,1,2,4,6,3,9,0,5,,1085.7274402609999,None,1085.7274402609999,None,1085.7274402609999,None,1085.7274402609999,None,1085.7274402609999,None,1085.7274402609999,None,1085.7274402609999,None,1085.7274402609999,None,1085.8206939959998,1086.327214098,1085.8206939959998,1086.327214098,1085.8206939959998,1086.327214098,None,None,down,1.3571585780000532,1085.8206939959998,None,None,None,z,0.22165776800011372,1087.220200859,None,1087.4601091380002,None,,32,16,17,,,,,105,32,2022_Sep_22_1228,templeton_exp2A_SD,2020.2.10,75.02113814346028,
,,,,,,,,,,,,,,,,,,,,,,65,0,65,0,,,,,,,,,,,,,,,,,,,,,,,,2.1,2.2,2.7,,,,,,,,,,,,,,,,,,,,,,,,,,,,,,,,,,,65,1069.2026736159999,1,8,0,5,2,7,4,6,1,0,4,1088.046529649,None,1,8,0,5,2,7,4,6,,1090.712240615,None,1090.712240615,None,1090.712240615,None,1090.712240615,None,1090.712240615,None,1090.712240615,None,1090.712240615,None,1090.712240615,None,1090.818808028,1091.3253184110001,1090.818808028,1091.3253184110001,1090.818808028,1091.3253184110001,None,None,down,1.3430460720001065,1090.818808028,None,None,None,x,0.2448672790001183,1092.204986847,None,1092.471504543,None,,33,16,17,,,,,105,32,2022_Sep_22_1228,templeton_exp2A_SD,2020.2.10,75.02113814346028,
,,,,,,,,,,,,,,,,,,,,,,66,0,66,0,,,,,,,,,,,,,,,,,,,,,,,,2.3000000000000003,2.4000000000000004,2.9000000000000004,,,,,,,,,,,,,,,,,,,,,,,,,,,,,,,,,,,66,1074.2136744030001,0,8,1,5,4,6,2,7,1,1,3,1093.0579930669999,None,0,8,1,3,4,6,2,7,,1095.9235777400002,None,1095.9235777400002,None,1095.9235777400002,None,1095.9235777400002,None,1095.9235777400002,None,1095.9235777400002,None,1095.9235777400002,None,1095.9235777400002,None,1096.030156212,1096.5366695680002,1096.030156212,1096.5366695680002,1096.030156212,1096.5366695680002,None,None,down,1.4356199730000299,1096.030156212,None,None,None,x,0.2523049189999256,1097.509631362,None,1097.776163187,None,,34,16,17,,,,,105,32,2022_Sep_22_1228,templeton_exp2A_SD,2020.2.10,75.02113814346028,
,,,,,,,,,,,,,,,,,,,,,,67,0,67,0,,,,,,,,,,,,,,,,,,,,,,,,2.9000000000000004,1.6,2.9000000000000004,,,,,,,,,,,,,,,,,,,,,,,,,,,,,,,,,,,67,1079.5161403089999,2,9,3,6,1,7,0,5,0,1,5,1098.349303062,None,2,9,3,6,1,4,0,5,,1101.814671238,None,1101.814671238,None,1101.814671238,None,1101.814671238,None,1101.814671238,None,1101.814671238,None,1101.814671238,None,1101.814671238,None,1100.5085028239998,1101.0149759449998,1100.5085028239998,1101.0149759449998,1100.5085028239998,1101.0149759449998,None,None,left,0.835127754000041,1101.814671238,None,None,None,z,0.0915048760002719,1102.69434416,None,1102.8009158470002,None,,35,17,18,,,,,105,32,2022_Sep_22_1228,templeton_exp2A_SD,2020.2.10,75.02113814346028,
,,,,,,,,,,,,,,,,,,,,,,68,0,68,0,,,,,,,,,,,,,,,,,,,,,,,,2.3000000000000003,2.4000000000000004,2.9000000000000004,,,,,,,,,,,,,,,,,,,,,,,,,,,,,,,,,,,68,1084.540777632,2,6,3,9,0,5,1,7,1,1,7,1103.3740895970002,None,2,6,3,9,0,5,1,4,,1106.239670926,None,1106.239670926,None,1106.239670926,None,1106.239670926,None,1106.239670926,None,1106.239670926,None,1106.239670926,None,1106.239670926,None,1106.3329177930002,1106.839392605,1106.3329177930002,1106.839392605,1106.3329177930002,1106.839392605,None,None,down,1.7089239439997073,1106.3329177930002,None,None,None,x,0.2776059860002533,1108.092254129,None,1108.385465698,None,,36,17,18,,,,,105,32,2022_Sep_22_1228,templeton_exp2A_SD,2020.2.10,75.02113814346028,
,,,,,,,,,,,,,,,,,,,,,,69,0,69,0,,,,,,,,,,,,,,,,,,,,,,,,2.9000000000000004,1.6,2.9000000000000004,,,,,,,,,,,,,,,,,,,,,,,,,,,,,,,,,,,69,1090.1269929890002,2,5,0,7,1,8,4,9,0,0,6,1108.971925303,None,2,5,0,7,1,8,4,9,,1112.4373673339999,None,1112.4373673339999,None,1112.4373673339999,None,1112.4373673339999,None,1112.4373673339999,None,1112.4373673339999,None,1112.4373673339999,None,1112.4373673339999,None,1111.1444638740002,1111.6509896179998,1111.1444638740002,1111.6509896179998,1111.1444638740002,1111.6509896179998,None,None,down,0.7324654779999946,1112.4373673339999,None,None,None,z,0.13548834999983228,1113.210365191,None,1113.3702992719998,None,,37,18,19,,,,,105,32,2022_Sep_22_1228,templeton_exp2A_SD,2020.2.10,75.02113814346028,
,,,,,,,,,,,,,,,,,,,,,,70,0,70,0,,,,,,,,,,,,,,,,,,,,,,,,2.9000000000000004,1.6,2.9000000000000004,,,,,,,,,,,,,,,,,,,,,,,,,,,,,,,,,,,70,1095.1108553800002,1,5,2,6,4,9,3,8,0,1,5,1113.94339204,None,1,5,2,6,4,0,3,8,,1117.408753686,None,1117.408753686,None,1117.408753686,None,1117.408753686,None,1117.408753686,None,1117.408753686,None,1117.408753686,None,1117.408753686,None,1116.102526631,1116.609068301,1116.102526631,1116.609068301,1116.102526631,1116.609068301,None,None,down,1.761090731999957,1117.408753686,None,None,None,z,0.2604908489997797,1119.22136836,None,1119.5012844999999,None,,38,18,20,,,,,105,32,2022_Sep_22_1228,templeton_exp2A_SD,2020.2.10,75.02113814346028,
,,,,,,,,,,,,,,,,,,,,,,71,0,71,0,,,,,,,,,,,,,,,,,,,,,,,,2.9000000000000004,1.6,2.9000000000000004,,,,,,,,,,,,,,,,,,,,,,,,,,,,,,,,,,,71,1101.243245502,1,5,0,6,4,8,2,7,0,1,4,1120.087754286,None,1,5,0,6,3,8,2,7,,1123.553119162,None,1123.553119162,None,1123.553119162,None,1123.553119162,None,1123.553119162,None,1123.553119162,None,1123.553119162,None,1123.553119162,None,1122.2468666930001,1122.753362309,1122.2468666930001,1122.753362309,1122.2468666930001,1122.753362309,None,None,left,1.0087736999998924,1123.553119162,None,None,None,x,0.3158261109997511,1124.6060346460001,None,1124.9391709190002,None,,39,19,21,,,,,105,32,2022_Sep_22_1228,templeton_exp2A_SD,2020.2.10,75.02113814346028,
,,,,,,,,,,,,,,,,,,,,,,72,0,72,0,,,,,,,,,,,,,,,,,,,,,,,,2.9000000000000004,1.6,2.9000000000000004,,,,,,,,,,,,,,,,,,,,,,,,,,,,,,,,,,,72,1106.6797273670002,0,7,1,5,2,6,4,9,0,0,6,1125.512298514,None,0,7,1,5,2,6,4,9,,1128.977719839,None,1128.977719839,None,1128.977719839,None,1128.977719839,None,1128.977719839,None,1128.977719839,None,1128.977719839,None,1128.977719839,None,1127.6715172769998,1128.178056648,1127.6715172769998,1128.178056648,1127.6715172769998,1128.178056648,None,None,down,0.9921168529999704,1128.977719839,None,None,None,z,0.11256943299986233,1130.0172957339998,None,1130.1505525629998,None,,40,20,22,,,,,105,32,2022_Sep_22_1228,templeton_exp2A_SD,2020.2.10,75.02113814346028,
,,,,,,,,,,,,,,,,,,,,,,73,0,73,0,,,,,,,,,,,,,,,,,,,,,,,,3.5,3.6,4.1,,,,,,,,,,,,,,,,,,,,,,,,,,,,,,,,,,,73,1111.890580096,3,9,1,6,0,8,4,5,1,0,4,1130.7236877409998,None,3,9,1,6,0,8,4,5,,1134.78885749,None,1134.78885749,None,1134.78885749,None,1134.78885749,None,1134.78885749,None,1134.78885749,None,1134.78885749,None,1134.78885749,None,1134.88210632,1135.388574579,1134.88210632,1135.388574579,1134.88210632,1135.388574579,None,None,left,1.1277518150000105,1134.88210632,None,None,None,x,0.40286126600040006,1136.054992089,None,1136.4814918240002,None,,41,20,22,,,,,105,32,2022_Sep_22_1228,templeton_exp2A_SD,2020.2.10,75.02113814346028,
,,,,,,,,,,,,,,,,,,,,,,74,0,74,0,,,,,,,,,,,,,,,,,,,,,,,,2.9000000000000004,1.6,2.9000000000000004,,,,,,,,,,,,,,,,,,,,,,,,,,,,,,,,,,,74,1118.222516813,1,7,2,9,3,8,0,5,0,0,3,1137.054610303,None,1,7,2,9,3,8,0,5,,1140.519974558,None,1140.519974558,None,1140.519974558,None,1140.519974558,None,1140.519974558,None,1140.519974558,None,1140.519974558,None,1140.519974558,None,1139.2137990919998,1139.720281353,1139.2137990919998,1139.720281353,1139.2137990919998,1139.720281353,None,None,left,2.6578592460000436,1140.519974558,None,None,None,x,0.4001213269998516,1143.225640367,None,1143.6520964590002,None,,42,20,23,,,,,105,32,2022_Sep_22_1228,templeton_exp2A_SD,2020.2.10,75.02113814346028,
,,,,,,,,,,,,,,,,,,,,,,75,0,75,0,,,,,,,,,,,,,,,,,,,,,,,,3.5,3.6,4.1,,,,,,,,,,,,,,,,,,,,,,,,,,,,,,,,,,,75,1131.239421122,3,9,1,6,2,5,0,7,1,0,0,1150.0763772040002,None,3,9,1,6,2,5,0,7,,1154.14149806,None,1154.14149806,None,1154.14149806,None,1154.14149806,None,1154.14149806,None,1154.14149806,None,1154.14149806,None,1154.14149806,None,1154.2348200150002,1154.741291742,1154.2348200150002,1154.741291742,1154.2348200150002,1154.741291742,None,None,down,2.319015505000152,1154.2348200150002,None,None,None,x,0.2798906180000813,1156.593909177,None,1156.887071839,None,,43,20,23,,,,,105,32,2022_Sep_22_1228,templeton_exp2A_SD,2020.2.10,75.02113814346028,
,,,,,,,,,,,,,,,,,,,,,,76,0,76,0,,,,,,,,,,,,,,,,,,,,,,,,2.9000000000000004,1.6,2.9000000000000004,,,,,,,,,,,,,,,,,,,,,,,,,,,,,,,,,,,76,1138.6286115760001,4,7,1,5,3,6,0,8,0,0,3,1157.460124048,None,4,7,1,5,3,6,0,8,,1160.9256102440002,None,1160.9256102440002,None,1160.9256102440002,None,1160.9256102440002,None,1160.9256102440002,None,1160.9256102440002,None,1160.9256102440002,None,1160.9256102440002,None,1159.6326803959998,1160.1392218080002,1159.6326803959998,1160.1392218080002,1159.6326803959998,1160.1392218080002,None,None,down,1.2042281489998459,1160.9256102440002,None,None,None,x,0.43939496400025746,1162.178467765,None,1162.6315958880002,None,,44,21,24,,,,,105,32,2022_Sep_22_1228,templeton_exp2A_SD,2020.2.10,75.02113814346028,
,,,,,,,,,,,,,,,,,,,,,,77,0,77,0,,,,,,,,,,,,,,,,,,,,,,,,2.9000000000000004,1.6,2.9000000000000004,,,,,,,,,,,,,,,,,,,,,,,,,,,,,,,,,,,77,1144.3717268970001,1,6,3,5,0,7,4,9,0,1,4,1163.204700385,None,1,6,3,5,2,7,4,9,,1166.6700523470001,None,1166.6700523470001,None,1166.6700523470001,None,1166.6700523470001,None,1166.6700523470001,None,1166.6700523470001,None,1166.6700523470001,None,1166.6700523470001,None,1165.3639192409998,1165.8703192320002,1165.3639192409998,1165.8703192320002,1165.3639192409998,1165.8703192320002,None,None,left,0.83579115800012,1166.6700523470001,None,None,None,z,0.14809943000000203,1167.54972256,None,1167.7229477930002,None,,45,22,25,,,,,105,32,2022_Sep_22_1228,templeton_exp2A_SD,2020.2.10,75.02113814346028,
,,,,,,,,,,,,,,,,,,,,,,78,0,78,0,,,,,,,,,,,,,,,,,,,,,,,,2.9000000000000004,1.6,2.9000000000000004,,,,,,,,,,,,,,,,,,,,,,,,,,,,,,,,,,,78,1149.4639757820003,4,6,0,8,2,7,3,9,0,0,4,1168.2961362929998,None,4,6,0,8,2,7,3,9,,1171.7614830619998,None,1171.7614830619998,None,1171.7614830619998,None,1171.7614830619998,None,1171.7614830619998,None,1171.7614830619998,None,1171.7614830619998,None,1171.7614830619998,None,1170.4686143780002,1170.975139842,1170.4686143780002,1170.975139842,1170.4686143780002,1170.975139842,None,None,left,6.912360918000104,1171.7614830619998,None,None,None,x,1.13100059899989,1178.7188505699999,None,1179.8650485249998,None,,46,22,26,,,,,105,32,2022_Sep_22_1228,templeton_exp2A_SD,2020.2.10,75.02113814346028,
,,,,,,,,,,,,,,,,,,,,,,79,0,79,0,,,,,,,,,,,,,,,,,,,,,,,,2.7,2.8000000000000003,3.3000000000000003,,,,,,,,,,,,,,,,,,,,,,,,,,,,,,,,,,,79,1161.605536714,0,6,2,9,3,8,4,5,1,0,2,1180.438167982,None,0,6,2,9,3,8,4,5,,1183.7036468970002,None,1183.7036468970002,None,1183.7036468970002,None,1183.7036468970002,None,1183.7036468970002,None,1183.7036468970002,None,1183.7036468970002,None,1183.7036468970002,None,1183.796890159,1184.3034142539998,1183.796890159,1184.3034142539998,1183.796890159,1184.3034142539998,None,None,down,1.3569535750002615,1183.796890159,None,None,None,z,0.5175417780001226,1185.196371067,None,1185.72948113,None,,47,22,26,,,,,105,32,2022_Sep_22_1228,templeton_exp2A_SD,2020.2.10,75.02113814346028,
,,,,,,,,,,,,,,,,,,,,,,80,0,80,0,,,,,,,,,,,,,,,,,,,,,,,,2.9000000000000004,1.6,2.9000000000000004,,,,,,,,,,,,,,,,,,,,,,,,,,,,,,,,,,,80,1167.470717076,3,9,0,8,4,5,1,7,0,0,1,1186.3025840110001,None,3,9,0,8,4,5,1,7,,1189.768017749,None,1189.768017749,None,1189.768017749,None,1189.768017749,None,1189.768017749,None,1189.768017749,None,1189.768017749,None,1189.768017749,None,1188.461814721,1188.9682954759999,1188.461814721,1188.9682954759999,1188.461814721,1188.9682954759999,None,None,left,0.9378220070002499,1189.768017749,None,None,None,x,0.2875899320001736,1190.75426734,None,1191.060788563,None,,48,22,27,,,,,105,32,2022_Sep_22_1228,templeton_exp2A_SD,2020.2.10,75.02113814346028,
,,,,,,,,,,,,,,,,,,,,,,81,0,81,0,,,,,,,,,,,,,,,,,,,,,,,,1.5,1.6,2.1,,,,,,,,,,,,,,,,,,,,,,,,,,,,,,,,,,,81,1172.8013429620003,2,8,0,9,3,5,1,7,1,0,7,1191.633954796,None,2,8,0,9,3,5,1,7,,1193.699813678,None,1193.699813678,None,1193.699813678,None,1193.699813678,None,1193.699813678,None,1193.699813678,None,1193.699813678,None,1193.699813678,None,1193.7931582100002,1194.299633766,1193.7931582100002,1194.299633766,1193.7931582100002,1194.299633766,None,None,down,1.720607347999703,1193.7931582100002,None,None,None,z,0.1479832059999353,1195.5658402289998,None,1195.7390045660002,None,,49,22,27,1,0.8148148148148148,1,,105,32,2022_Sep_22_1228,templeton_exp2A_SD,2020.2.10,75.02113814346028,
,,,,,,,,,,,,,,,,,,,,,,82,0,82,0,,,,,,,,,,,,,,,,,,,,,,,,2.9,3.0,3.5,,,,,,,,,,,,,,,,,,,,,,,,,,,,,,,,,,,82,1177.4789717400001,0,7,1,9,3,5,2,8,1,0,1,1196.312137819,None,0,7,1,9,3,5,2,8,,1199.777543636,None,1199.777543636,None,1199.777543636,None,1199.777543636,None,1199.777543636,None,1199.777543636,None,1199.777543636,None,1199.777543636,None,1199.8708208609999,1200.377344024,1199.8708208609999,1200.377344024,1199.8708208609999,1200.377344024,None,None,down,0.8429850359998454,1199.8708208609999,None,None,None,z,0.11803339399966717,1200.763825754,None,1200.897072043,None,,50,22,27,,,,,105,32,2022_Sep_22_1228,templeton_exp2A_SD,2020.2.10,75.02113814346028,
,,,,,,,,,,,,,,,,,,,,,,83,0,83,0,,,,,,,,,,,,,,,,,,,,,,,,2.7,2.8000000000000003,3.3000000000000003,,,,,,,,,,,,,,,,,,,,,,,,,,,,,,,,,,,83,1182.638045515,0,5,1,8,3,6,2,7,1,0,1,1201.47018057,None,0,5,1,8,3,6,2,7,,1204.735605992,None,1204.735605992,None,1204.735605992,None,1204.735605992,None,1204.735605992,None,1204.735605992,None,1204.735605992,None,1204.735605992,None,1204.8422398569999,1205.3487334019999,1204.8422398569999,1205.3487334019999,1204.8422398569999,1205.3487334019999,None,None,down,0.7755661279998094,1204.8422398569999,None,None,None,z,0.12523326000018642,1205.66861542,None,1205.8153253960002,None,,51,22,27,,,,,105,32,2022_Sep_22_1228,templeton_exp2A_SD,2020.2.10,75.02113814346028,
,,,,,,,,,,,,,,,,,,,,,,84,0,84,0,,,,,,,,,,,,,,,,,,,,,,,,3.1,3.2,3.7,,,,,,,,,,,,,,,,,,,,,,,,,,,,,,,,,,,84,1187.5559311929999,3,7,0,8,4,6,1,9,1,1,2,1206.388328715,None,3,7,2,8,4,6,1,9,,1210.053665692,None,1210.053665692,None,1210.053665692,None,1210.053665692,None,1210.053665692,None,1210.053665692,None,1210.053665692,None,1210.053665692,None,1210.160290303,1210.6667322699998,1210.160290303,1210.6667322699998,1210.160290303,1210.6667322699998,None,None,down,1.649563919999764,1210.160290303,None,None,None,x,0.26894499099989844,1211.852905718,None,1212.1462214209998,None,,52,22,27,,,,,105,32,2022_Sep_22_1228,templeton_exp2A_SD,2020.2.10,75.02113814346028,
,,,,,,,,,,,,,,,,,,,,,,85,0,85,0,,,,,,,,,,,,,,,,,,,,,,,,2.9000000000000004,1.6,2.9000000000000004,,,,,,,,,,,,,,,,,,,,,,,,,,,,,,,,,,,85,1193.8865522020003,3,9,4,6,0,7,2,5,0,1,1,1212.719256485,None,3,1,4,6,0,7,2,5,,1216.184626343,None,1216.184626343,None,1216.184626343,None,1216.184626343,None,1216.184626343,None,1216.184626343,None,1216.184626343,None,1216.184626343,None,1214.878523748,1215.384953126,1214.878523748,1215.384953126,1214.878523748,1215.384953126,None,None,left,0.9452102120003474,1216.184626343,None,None,None,z,1.2228992179998386,1217.1709630900002,None,1218.4104261119999,None,,53,23,28,,,,,105,32,2022_Sep_22_1228,templeton_exp2A_SD,2020.2.10,75.02113814346028,
,,,,,,,,,,,,,,,,,,,,,,86,0,86,0,,,,,,,,,,,,,,,,,,,,,,,,2.7,2.8000000000000003,3.3000000000000003,,,,,,,,,,,,,,,,,,,,,,,,,,,,,,,,,,,86,1200.1506433000002,2,6,4,9,0,8,3,5,1,0,7,1218.983541548,None,2,6,4,9,0,8,3,5,,1222.2489933569998,None,1222.2489933569998,None,1222.2489933569998,None,1222.2489933569998,None,1222.2489933569998,None,1222.2489933569998,None,1222.2489933569998,None,1222.2489933569998,None,1222.3423407809998,1222.8487587369998,1222.3423407809998,1222.8487587369998,1222.3423407809998,1222.8487587369998,None,None,down,1.4914821689999371,1222.3423407809998,None,None,None,x,0.5907759669998995,1223.8750784410001,None,1224.4881223720001,None,,54,23,28,,,,,105,32,2022_Sep_22_1228,templeton_exp2A_SD,2020.2.10,75.02113814346028,
,,,,,,,,,,,,,,,,,,,,,,87,0,87,0,,,,,,,,,,,,,,,,,,,,,,,,2.9000000000000004,1.6,2.9000000000000004,,,,,,,,,,,,,,,,,,,,,,,,,,,,,,,,,,,87,1206.2291483360002,0,7,2,5,1,8,3,6,0,1,2,1225.061242594,None,0,7,4,5,1,8,3,6,,1228.5266648089998,None,1228.5266648089998,None,1228.5266648089998,None,1228.5266648089998,None,1228.5266648089998,None,1228.5266648089998,None,1228.5266648089998,None,1228.5266648089998,None,1227.233808659,1227.740283677,1227.233808659,1227.740283677,1227.233808659,1227.740283677,None,None,left,1.1310728180001206,1228.5266648089998,None,None,None,x,0.7503305820000605,1229.6995187979999,None,1230.4724547819999,None,,55,24,29,,,,,105,32,2022_Sep_22_1228,templeton_exp2A_SD,2020.2.10,75.02113814346028,
,,,,,,,,,,,,,,,,,,,,,,88,0,88,0,,,,,,,,,,,,,,,,,,,,,,,,2.9000000000000004,1.6,2.9000000000000004,,,,,,,,,,,,,,,,,,,,,,,,,,,,,,,,,,,88,1212.2129333670002,2,7,0,5,3,6,4,9,0,0,3,1231.04570313,None,2,7,0,5,3,6,4,9,,1234.511049345,None,1234.511049345,None,1234.511049345,None,1234.511049345,None,1234.511049345,None,1234.511049345,None,1234.511049345,None,1234.511049345,None,1233.2048461359998,1233.711353474,1233.2048461359998,1233.711353474,1233.2048461359998,1233.711353474,None,None,down,0.9147969400000875,1234.511049345,None,None,None,x,0.18707336399984342,1235.470690632,None,1235.683951969,None,,56,25,30,,,,,105,32,2022_Sep_22_1228,templeton_exp2A_SD,2020.2.10,75.02113814346028,
,,,,,,,,,,,,,,,,,,,,,,89,0,89,0,,,,,,,,,,,,,,,,,,,,,,,,3.3000000000000003,3.4000000000000004,3.9000000000000004,,,,,,,,,,,,,,,,,,,,,,,,,,,,,,,,,,,89,1217.425289905,1,7,2,8,3,5,4,9,1,1,0,1236.257057173,None,0,7,2,8,3,5,4,9,,1240.122269703,None,1240.122269703,None,1240.122269703,None,1240.122269703,None,1240.122269703,None,1240.122269703,None,1240.122269703,None,1240.122269703,None,1240.228910224,1240.7353260000002,1240.228910224,1240.7353260000002,1240.228910224,1240.7353260000002,None,None,left,1.6849096639998606,1240.228910224,None,None,None,x,0.24016153499997017,1241.961596893,None,1242.2281319820001,None,,57,25,30,,,,,105,32,2022_Sep_22_1228,templeton_exp2A_SD,2020.2.10,75.02113814346028,
,,,,,,,,,,,,,,,,,,,,,,90,0,90,0,,,,,,,,,,,,,,,,,,,,,,,,2.5,2.6,3.1,,,,,,,,,,,,,,,,,,,,,,,,,,,,,,,,,,,90,1228.3763623510001,1,8,2,6,0,9,3,7,1,0,5,1247.212920617,None,1,8,2,6,0,9,3,7,,1250.2783787780002,None,1250.2783787780002,None,1250.2783787780002,None,1250.2783787780002,None,1250.2783787780002,None,1250.2783787780002,None,1250.2783787780002,None,1250.2783787780002,None,1250.371718442,1250.8782061529998,1250.371718442,1250.8782061529998,1250.371718442,1250.8782061529998,None,None,down,3.2221376599995892,1250.371718442,None,None,None,x,0.1808729740000672,1253.636988936,None,1253.837015622,None,,58,25,30,,,,,105,32,2022_Sep_22_1228,templeton_exp2A_SD,2020.2.10,75.02113814346028,
,,,,,,,,,,,,,,,,,,,,,,91,0,91,0,,,,,,,,,,,,,,,,,,,,,,,,2.9000000000000004,1.6,2.9000000000000004,,,,,,,,,,,,,,,,,,,,,,,,,,,,,,,,,,,91,1235.5791001190003,2,6,4,7,3,8,1,5,0,1,4,1254.4235202900002,None,2,6,4,7,0,8,1,5,,1257.888815822,None,1257.888815822,None,1257.888815822,None,1257.888815822,None,1257.888815822,None,1257.888815822,None,1257.888815822,None,1257.888815822,None,1256.5959479330002,1257.102470558,1256.5959479330002,1257.102470558,1256.5959479330002,1257.102470558,None,None,left,1.0970239759999458,1257.888815822,None,None,None,z,0.1428325029996813,1259.034983373,None,1259.19506483,None,,59,26,31,,,,,105,32,2022_Sep_22_1228,templeton_exp2A_SD,2020.2.10,75.02113814346028,
,,,,,,,,,,,,,,,,,,,,,,92,0,92,0,,,,,,,,,,,,,,,,,,,,,,,,2.9000000000000004,1.6,2.9000000000000004,,,,,,,,,,,,,,,,,,,,,,,,,,,,,,,,,,,92,1240.9351769390003,3,5,0,8,1,6,4,9,0,1,2,1259.768122317,None,3,5,2,8,1,6,4,9,,1263.233491571,None,1263.233491571,None,1263.233491571,None,1263.233491571,None,1263.233491571,None,1263.233491571,None,1263.233491571,None,1263.233491571,None,1261.9273436310002,1262.4338413030002,1261.9273436310002,1262.4338413030002,1261.9273436310002,1262.4338413030002,None,None,left,0.9843554630001563,1263.233491571,None,None,None,z,0.11806153299994548,1264.2597829550002,None,1264.3930018190001,None,,60,27,32,,,,,105,32,2022_Sep_22_1228,templeton_exp2A_SD,2020.2.10,75.02113814346028,
,,,,,,,,,,,,,,,,,,,,,,93,0,93,0,,,,,,,,,,,,,,,,,,,,,,,,2.9000000000000004,1.6,2.9000000000000004,,,,,,,,,,,,,,,,,,,,,,,,,,,,,,,,,,,93,1246.1341652930003,0,7,1,5,4,9,3,8,0,0,2,1264.9661107200002,None,0,7,1,5,4,9,3,8,,1268.4315199730001,None,1268.4315199730001,None,1268.4315199730001,None,1268.4315199730001,None,1268.4315199730001,None,1268.4315199730001,None,1268.4315199730001,None,1268.4315199730001,None,1267.1386862739998,1267.645179207,1267.1386862739998,1267.645179207,1267.1386862739998,1267.645179207,None,None,left,1.6183145449999756,1268.4315199730001,None,None,None,x,0.2483310210000127,1270.097531579,None,1270.364067195,None,,61,27,33,,,,,105,32,2022_Sep_22_1228,templeton_exp2A_SD,2020.2.10,75.02113814346028,
,,,,,,,,,,,,,,,,,,,,,,94,0,94,0,,,,,,,,,,,,,,,,,,,,,,,,2.7,2.8000000000000003,3.3000000000000003,,,,,,,,,,,,,,,,,,,,,,,,,,,,,,,,,,,94,1252.1052285860003,1,9,3,5,2,7,4,6,1,1,0,1270.9371970169998,None,0,9,3,5,2,7,4,6,,1274.2026430160001,None,1274.2026430160001,None,1274.2026430160001,None,1274.2026430160001,None,1274.2026430160001,None,1274.2026430160001,None,1274.2026430160001,None,1274.2026430160001,None,1274.2959113509999,1274.8023873969998,1274.2959113509999,1274.8023873969998,1274.2959113509999,1274.8023873969998,None,None,down,1.265925432000131,1274.2959113509999,None,None,None,x,0.21569298999975217,1275.602156994,None,1275.8420182080001,None,,62,27,33,,,,,105,32,2022_Sep_22_1228,templeton_exp2A_SD,2020.2.10,75.02113814346028,
,,,,,,,,,,,,,,,,,,,,,,95,0,95,0,,,,,,,,,,,,,,,,,,,,,,,,2.9000000000000004,1.6,2.9000000000000004,,,,,,,,,,,,,,,,,,,,,,,,,,,,,,,,,,,95,1257.5842753270001,2,5,4,6,1,8,3,7,0,1,6,1276.428527536,None,2,5,4,6,1,8,0,7,,1279.8938553320002,None,1279.8938553320002,None,1279.8938553320002,None,1279.8938553320002,None,1279.8938553320002,None,1279.8938553320002,None,1279.8938553320002,None,1279.8938553320002,None,1278.6009875420002,1279.107499938,1278.6009875420002,1279.107499938,1278.6009875420002,1279.107499938,None,None,left,1.1399775599998065,1279.8938553320002,None,None,None,z,0.1217873900000086,1281.080010496,None,1281.226649387,None,,63,28,34,,,,,105,32,2022_Sep_22_1228,templeton_exp2A_SD,2020.2.10,75.02113814346028,
,,,,,,,,,,,,,,,,,,,,,,96,0,96,0,,,,,,,,,,,,,,,,,,,,,,,,3.5,3.6,4.1,,,,,,,,,,,,,,,,,,,,,,,,,,,,,,,,,,,96,1262.968436839,4,8,3,7,1,5,2,6,1,0,4,1281.8130728049998,None,4,8,3,7,1,5,2,6,,1285.878272105,None,1285.878272105,None,1285.878272105,None,1285.878272105,None,1285.878272105,None,1285.878272105,None,1285.878272105,None,1285.878272105,None,1285.9849043010001,1286.4913442210002,1285.9849043010001,1286.4913442210002,1285.9849043010001,1286.4913442210002,None,None,down,1.8089498979998098,1285.9849043010001,None,None,None,x,0.17240157400010503,1287.8375275290002,None,1288.0240828059998,None,,64,28,34,,,,,105,32,2022_Sep_22_1228,templeton_exp2A_SD,2020.2.10,75.02113814346028,
,,,,,,,,,,,,,,,,,,,,,,97,0,97,0,,,,,,,,,,,,,,,,,,,,,,,,2.9000000000000004,1.6,2.9000000000000004,,,,,,,,,,,,,,,,,,,,,,,,,,,,,,,,,,,97,1269.764456731,0,6,2,8,1,5,4,9,0,0,5,1288.5971960549998,None,0,6,2,8,1,5,4,9,,1292.0625355240002,None,1292.0625355240002,None,1292.0625355240002,None,1292.0625355240002,None,1292.0625355240002,None,1292.0625355240002,None,1292.0625355240002,None,1292.0625355240002,None,1290.7563947400001,1291.26280368,1290.7563947400001,1291.26280368,1290.7563947400001,1291.26280368,None,None,down,0.9713013410000713,1292.0625355240002,None,None,None,z,0.13431838599990442,1293.0755177929998,None,1293.2354129520002,None,,65,29,35,,,,,105,32,2022_Sep_22_1228,templeton_exp2A_SD,2020.2.10,75.02113814346028,
,,,,,,,,,,,,,,,,,,,,,,98,0,98,0,,,,,,,,,,,,,,,,,,,,,,,,2.9,3.0,3.5,,,,,,,,,,,,,,,,,,,,,,,,,,,,,,,,,,,98,1274.97632796,3,9,2,5,0,7,1,8,1,0,1,1293.808543469,None,3,9,2,5,0,7,1,8,,1297.273946312,None,1297.273946312,None,1297.273946312,None,1297.273946312,None,1297.273946312,None,1297.273946312,None,1297.273946312,None,1297.273946312,None,1297.3671853580001,1297.8737764979999,1297.3671853580001,1297.8737764979999,1297.3671853580001,1297.8737764979999,None,None,left,1.4026622260003023,1297.3671853580001,None,None,None,x,0.22185764299956645,1298.820001932,None,1299.059882789,None,,66,29,35,,,,,105,32,2022_Sep_22_1228,templeton_exp2A_SD,2020.2.10,75.02113814346028,
,,,,,,,,,,,,,,,,,,,,,,99,0,99,0,,,,,,,,,,,,,,,,,,,,,,,,2.5,2.6,3.1,,,,,,,,,,,,,,,,,,,,,,,,,,,,,,,,,,,99,1280.8016652070003,1,7,4,5,0,6,3,8,1,0,7,1299.6463098460001,None,1,7,4,5,0,6,3,8,,1302.7117470790001,None,1302.7117470790001,None,1302.7117470790001,None,1302.7117470790001,None,1302.7117470790001,None,1302.7117470790001,None,1302.7117470790001,None,1302.7117470790001,None,1302.8184977039998,1303.3249777090002,1302.8184977039998,1303.3249777090002,1302.8184977039998,1303.3249777090002,None,None,down,1.7992688650001583,1302.8184977039998,None,None,None,x,0.32804711500011763,1304.6578135819998,None,1305.004341736,None,,67,29,35,,,,,105,32,2022_Sep_22_1228,templeton_exp2A_SD,2020.2.10,75.02113814346028,
,,,,,,,,,,,,,,,,,,,,,,100,0,100,0,,,,,,,,,,,,,,,,,,,,,,,,2.7,2.8000000000000003,3.3000000000000003,,,,,,,,,,,,,,,,,,,,,,,,,,,,,,,,,,,100,1286.745102951,1,6,4,9,0,5,2,7,1,1,2,1305.577411213,None,1,6,3,9,0,5,2,7,,1308.842808088,None,1308.842808088,None,1308.842808088,None,1308.842808088,None,1308.842808088,None,1308.842808088,None,1308.842808088,None,1308.842808088,None,1308.9362011270002,1309.442672216,1308.9362011270002,1309.442672216,1308.9362011270002,1309.442672216,None,None,left,1.0256268079997426,1308.9362011270002,None,None,None,z,0.13538552099998924,1310.002463129,None,1310.162389378,None,,68,29,35,,,,,105,32,2022_Sep_22_1228,templeton_exp2A_SD,2020.2.10,75.02113814346028,
,,,,,,,,,,,,,,,,,,,,,,101,0,101,0,,,,,,,,,,,,,,,,,,,,,,,,2.9000000000000004,1.6,2.9000000000000004,,,,,,,,,,,,,,,,,,,,,,,,,,,,,,,,,,,101,1291.9029788600003,4,9,1,8,2,5,3,6,0,1,6,1310.735477082,None,4,9,1,8,2,5,0,6,,1314.2008218029998,None,1314.2008218029998,None,1314.2008218029998,None,1314.2008218029998,None,1314.2008218029998,None,1314.2008218029998,None,1314.2008218029998,None,1314.2008218029998,None,1312.894683106,1313.401082744,1312.894683106,1313.401082744,1312.894683106,1313.401082744,None,None,down,0.8490164559998448,1314.2008218029998,None,None,None,x,1.7319503730000179,1315.0938627940002,None,1316.8396666730002,None,,69,29,36,,,,,105,32,2022_Sep_22_1228,templeton_exp2A_SD,2020.2.10,75.02113814346028,
,,,,,,,,,,,,,,,,,,,,,,102,0,102,0,,,,,,,,,,,,,,,,,,,,,,,,2.5,2.6,3.1,,,,,,,,,,,,,,,,,,,,,,,,,,,,,,,,,,,102,1298.5811051829999,0,9,4,6,2,8,3,7,1,1,6,1317.4128918019999,None,0,9,4,6,2,8,1,7,,1320.478502438,None,1320.478502438,None,1320.478502438,None,1320.478502438,None,1320.478502438,None,1320.478502438,None,1320.478502438,None,1320.478502438,None,1320.5850653599998,1321.091591146,1320.5850653599998,1321.091591146,1320.5850653599998,1321.091591146,None,None,left,1.1288345580001078,1320.5850653599998,None,None,None,z,0.30785033199981626,1321.758002836,None,1322.091159071,None,,70,29,36,,,,,105,32,2022_Sep_22_1228,templeton_exp2A_SD,2020.2.10,75.02113814346028,
,,,,,,,,,,,,,,,,,,,,,,103,0,103,0,,,,,,,,,,,,,,,,,,,,,,,,2.9000000000000004,1.6,2.9000000000000004,,,,,,,,,,,,,,,,,,,,,,,,,,,,,,,,,,,103,1303.8333375720001,3,6,1,8,4,7,2,5,0,0,5,1322.677645291,None,3,6,1,8,4,7,2,5,,1326.143010984,None,1326.143010984,None,1326.143010984,None,1326.143010984,None,1326.143010984,None,1326.143010984,None,1326.143010984,None,1326.143010984,None,1324.8501470540002,1325.356523267,1324.8501470540002,1325.356523267,1324.8501470540002,1325.356523267,None,None,down,0.9867359849999957,1326.143010984,None,None,None,z,0.09930774999975256,1327.1826157429998,None,1327.3024919329998,None,,71,30,37,,,,,105,32,2022_Sep_22_1228,templeton_exp2A_SD,2020.2.10,75.02113814346028,
,,,,,,,,,,,,,,,,,,,,,,104,0,104,0,,,,,,,,,,,,,,,,,,,,,,,,2.9000000000000004,1.6,2.9000000000000004,,,,,,,,,,,,,,,,,,,,,,,,,,,,,,,,,,,104,1309.043420137,4,6,0,7,1,9,3,8,0,0,0,1327.8756162319999,None,4,6,0,7,1,9,3,8,,1331.340991892,None,1331.340991892,None,1331.340991892,None,1331.340991892,None,1331.340991892,None,1331.340991892,None,1331.340991892,None,1331.340991892,None,1330.0481464850002,1330.554633988,1330.0481464850002,1330.554633988,1330.0481464850002,1330.554633988,None,None,left,0.9409069400003318,1331.340991892,None,None,None,x,0.2105497990000913,1332.3273351639998,None,1332.553840975,None,,72,30,38,,,,,105,32,2022_Sep_22_1228,templeton_exp2A_SD,2020.2.10,75.02113814346028,
,,,,,,,,,,,,,,,,,,,,,,105,0,105,0,,,,,,,,,,,,,,,,,,,,,,,,2.9000000000000004,1.6,2.9000000000000004,,,,,,,,,,,,,,,,,,,,,,,,,,,,,,,,,,,105,1316.023752111,4,7,3,6,1,9,2,5,0,1,0,1334.8596497790002,None,0,7,3,6,1,9,2,5,,1338.3250397620002,None,1338.3250397620002,None,1338.3250397620002,None,1338.3250397620002,None,1338.3250397620002,None,1338.3250397620002,None,1338.3250397620002,None,1338.3250397620002,None,1337.0188239800002,1337.5253406190002,1337.0188239800002,1337.5253406190002,1337.0188239800002,1337.5253406190002,None,None,left,1.1648034119998556,1338.3250397620002,None,None,None,x,0.1918748139996751,1339.537977824,None,1339.7511272499999,None,,73,31,39,,,,,105,32,2022_Sep_22_1228,templeton_exp2A_SD,2020.2.10,75.02113814346028,
,,,,,,,,,,,,,,,,,,,,,,106,0,106,0,,,,,,,,,,,,,,,,,,,,,,,,2.9000000000000004,1.6,2.9000000000000004,,,,,,,,,,,,,,,,,,,,,,,,,,,,,,,,,,,106,1321.4925281040003,0,7,4,9,3,8,1,5,0,0,2,1340.324300956,None,0,7,4,9,3,8,1,5,,1343.7896439509998,None,1343.7896439509998,None,1343.7896439509998,None,1343.7896439509998,None,1343.7896439509998,None,1343.7896439509998,None,1343.7896439509998,None,1343.7896439509998,None,1342.483425575,1342.9900119229999,1342.483425575,1342.9900119229999,1342.483425575,1342.9900119229999,None,None,down,0.8841948320000483,1343.7896439509998,None,None,None,z,0.15126152199991338,1344.722592887,None,1344.895847094,None,,74,32,40,,,,,105,32,2022_Sep_22_1228,templeton_exp2A_SD,2020.2.10,75.02113814346028,
,,,,,,,,,,,,,,,,,,,,,,107,0,107,0,,,,,,,,,,,,,,,,,,,,,,,,2.9000000000000004,1.6,2.9000000000000004,,,,,,,,,,,,,,,,,,,,,,,,,,,,,,,,,,,107,1326.638128321,0,5,4,6,2,7,3,8,0,1,4,1345.48229095,None,0,5,4,6,1,7,3,8,,1348.9476898750002,None,1348.9476898750002,None,1348.9476898750002,None,1348.9476898750002,None,1348.9476898750002,None,1348.9476898750002,None,1348.9476898750002,None,1348.9476898750002,None,1347.654858314,1348.16133112,1347.654858314,1348.16133112,1347.654858314,1348.16133112,None,None,down,2.8861593880001237,1348.9476898750002,None,None,None,c,0.6419765480000024,1351.8798763440002,None,1352.5463112260002,None,,75,32,41,,,,,105,32,2022_Sep_22_1228,templeton_exp2A_SD,2020.2.10,75.02113814346028,
,,,,,,,,,,,,,,,,,,,,,,108,0,108,0,,,,,,,,,,,,,,,,,,,,,,,,1.7,1.8,2.3,,,,,,,,,,,,,,,,,,,,,,,,,,,,,,,,,,,108,1334.287013762,0,6,4,5,1,9,2,7,1,0,2,1353.1194024,None,0,6,4,5,1,9,2,7,,1355.385268232,None,1355.385268232,None,1355.385268232,None,1355.385268232,None,1355.385268232,None,1355.385268232,None,1355.385268232,None,1355.385268232,None,1355.478537103,1355.984995817,1355.478537103,1355.984995817,1355.478537103,1355.984995817,None,None,down,1.107211516999996,1355.478537103,None,None,None,z,0.17977339400022174,1356.638084423,None,1356.837976865,None,,76,32,41,,,,,105,32,2022_Sep_22_1228,templeton_exp2A_SD,2020.2.10,75.02113814346028,
,,,,,,,,,,,,,,,,,,,,,,109,0,109,0,,,,,,,,,,,,,,,,,,,,,,,,1.5,1.6,2.1,,,,,,,,,,,,,,,,,,,,,,,,,,,,,,,,,,,109,1338.579367041,1,6,0,7,4,5,3,8,1,0,1,1357.4111523899999,None,1,6,0,7,4,5,3,8,,1359.4770353430001,None,1359.4770353430001,None,1359.4770353430001,None,1359.4770353430001,None,1359.4770353430001,None,1359.4770353430001,None,1359.4770353430001,None,1359.4770353430001,None,1359.583620009,1360.0901289770002,1359.583620009,1360.0901289770002,1359.583620009,1360.0901289770002,None,None,down,1.0262207340001623,1359.583620009,None,None,None,z,0.12804111599962198,1360.649846355,None,1360.796524692,None,,77,32,41,,,,,105,32,2022_Sep_22_1228,templeton_exp2A_SD,2020.2.10,75.02113814346028,
,,,,,,,,,,,,,,,,,,,,,,110,0,110,0,,,,,,,,,,,,,,,,,,,,,,,,2.9000000000000004,1.6,2.9000000000000004,,,,,,,,,,,,,,,,,,,,,,,,,,,,,,,,,,,110,1342.538291041,0,5,2,6,4,7,3,8,0,1,3,1361.382913826,None,0,5,2,1,4,7,3,8,,1364.8482916589999,None,1364.8482916589999,None,1364.8482916589999,None,1364.8482916589999,None,1364.8482916589999,None,1364.8482916589999,None,1364.8482916589999,None,1364.8482916589999,None,1363.555498932,1364.061994334,1363.555498932,1364.061994334,1363.555498932,1364.061994334,None,None,left,1.489559952000036,1364.8482916589999,None,None,None,x,0.3247933140000896,1366.381060041,None,1366.727645739,None,,78,33,42,,,,,105,32,2022_Sep_22_1228,templeton_exp2A_SD,2020.2.10,75.02113814346028,
,,,,,,,,,,,,,,,,,,,,,,111,0,111,0,,,,,,,,,,,,,,,,,,,,,,,,3.1,3.2,3.7,,,,,,,,,,,,,,,,,,,,,,,,,,,,,,,,,,,111,1348.4689455640003,1,5,3,7,2,6,0,8,1,1,3,1367.300735728,None,1,5,3,4,2,6,0,8,,1370.965980609,None,1370.965980609,None,1370.965980609,None,1370.965980609,None,1370.965980609,None,1370.965980609,None,1370.965980609,None,1370.965980609,None,1371.059307099,1371.565752577,1371.059307099,1371.565752577,1371.059307099,1371.565752577,None,None,left,1.3505369819999942,1371.059307099,None,None,None,x,0.3510931870000604,1372.458759711,None,1372.8319796449998,None,,79,33,42,,,,,105,32,2022_Sep_22_1228,templeton_exp2A_SD,2020.2.10,75.02113814346028,
,,,,,,,,,,,,,,,,,,,,,,112,0,112,0,,,,,,,,,,,,,,,,,,,,,,,,2.9000000000000004,1.6,2.9000000000000004,,,,,,,,,,,,,,,,,,,,,,,,,,,,,,,,,,,112,1354.5735922380002,0,5,3,6,4,8,1,7,0,0,1,1373.418356726,None,0,5,3,6,4,8,1,7,,1376.883744344,None,1376.883744344,None,1376.883744344,None,1376.883744344,None,1376.883744344,None,1376.883744344,None,1376.883744344,None,1376.883744344,None,1375.5909043200002,1376.097382222,1375.5909043200002,1376.097382222,1375.5909043200002,1376.097382222,None,None,down,0.9260899210003117,1376.883744344,None,None,None,z,0.16906027100003485,1377.8567525629999,None,1378.0432875879999,None,,80,34,43,,,,,105,32,2022_Sep_22_1228,templeton_exp2A_SD,2020.2.10,75.02113814346028,
,,,,,,,,,,,,,,,,,,,,,,113,0,113,0,,,,,,,,,,,,,,,,,,,,,,,,2.1,2.2,2.7,,,,,,,,,,,,,,,,,,,,,,,,,,,,,,,,,,,113,1359.784490966,4,7,2,8,1,9,0,6,1,1,0,1378.6164187860002,None,3,7,2,8,1,9,0,6,,1381.282031219,None,1381.282031219,None,1381.282031219,None,1381.282031219,None,1381.282031219,None,1381.282031219,None,1381.282031219,None,1381.282031219,None,1381.375415099,1381.8818377989999,1381.375415099,1381.8818377989999,1381.375415099,1381.8818377989999,None,None,down,1.346318291999978,1381.375415099,None,None,None,z,0.17123391799987076,1382.774677355,None,1382.961403164,None,,81,34,43,,,,,105,32,2022_Sep_22_1228,templeton_exp2A_SD,2020.2.10,75.02113814346028,
,,,,,,,,,,,,,,,,,,,,,,114,0,114,0,,,,,,,,,,,,,,,,,,,,,,,,2.9000000000000004,1.6,2.9000000000000004,,,,,,,,,,,,,,,,,,,,,,,,,,,,,,,,,,,114,1364.701079697,2,6,3,5,0,8,1,9,0,1,2,1383.534542707,None,2,6,4,5,0,8,1,9,,1386.999892394,None,1386.999892394,None,1386.999892394,None,1386.999892394,None,1386.999892394,None,1386.999892394,None,1386.999892394,None,1386.999892394,None,1385.693779387,1386.20020748,1385.693779387,1386.20020748,1385.693779387,1386.20020748,None,None,left,0.9379440610000529,1386.999892394,None,None,None,z,0.29563333399983094,1387.9862147219999,None,1388.306099021,None,,82,35,44,,,,,105,32,2022_Sep_22_1228,templeton_exp2A_SD,2020.2.10,75.02113814346028,
,,,,,,,,,,,,,,,,,,,,,,115,0,115,0,,,,,,,,,,,,,,,,,,,,,,,,1.5,1.6,2.1,,,,,,,,,,,,,,,,,,,,,,,,,,,,,,,,,,,115,1370.0473644,4,8,3,5,2,7,0,9,1,1,6,1388.8791797820002,None,4,8,3,5,2,7,1,9,,1390.9451404580002,None,1390.9451404580002,None,1390.9451404580002,None,1390.9451404580002,None,1390.9451404580002,None,1390.9451404580002,None,1390.9451404580002,None,1390.9451404580002,None,1391.0517131479999,1391.558211581,1391.0517131479999,1391.558211581,1391.0517131479999,1391.558211581,None,None,left,1.1580986339999981,1391.0517131479999,None,None,None,z,0.15847779699970488,1392.2512982,None,1392.4244958319998,None,,83,35,44,,,,,105,32,2022_Sep_22_1228,templeton_exp2A_SD,2020.2.10,75.02113814346028,
,,,,,,,,,,,,,,,,,,,,,,116,0,116,0,,,,,,,,,,,,,,,,,,,,,,,,2.9000000000000004,1.6,2.9000000000000004,,,,,,,,,,,,,,,,,,,,,,,,,,,,,,,,,,,116,1374.1661687870003,4,7,2,8,0,5,3,6,0,0,0,1393.010987079,None,4,7,2,8,0,5,3,6,,1396.4763032879998,None,1396.4763032879998,None,1396.4763032879998,None,1396.4763032879998,None,1396.4763032879998,None,1396.4763032879998,None,1396.4763032879998,None,1396.4763032879998,None,1395.183456434,1395.690000232,1395.183456434,1395.690000232,1395.183456434,1395.690000232,None,None,down,0.7175423429998773,1396.4763032879998,None,None,None,z,0.0698446609999337,1397.2360031649998,None,1397.3293218719998,None,,84,36,45,,,,,105,32,2022_Sep_22_1228,templeton_exp2A_SD,2020.2.10,75.02113814346028,
,,,,,,,,,,,,,,,,,,,,,,117,0,117,0,,,,,,,,,,,,,,,,,,,,,,,,2.9000000000000004,1.6,2.9000000000000004,,,,,,,,,,,,,,,,,,,,,,,,,,,,,,,,,,,117,1379.070377413,3,5,4,9,2,7,1,6,0,0,0,1397.902435535,None,3,5,4,9,2,7,1,6,,1401.3678295339998,None,1401.3678295339998,None,1401.3678295339998,None,1401.3678295339998,None,1401.3678295339998,None,1401.3678295339998,None,1401.3678295339998,None,1401.3678295339998,None,1400.061663492,1400.56809447,1400.061663492,1400.56809447,1400.061663492,1400.56809447,None,None,left,1.1780081640004028,1401.3678295339998,None,None,None,z,0.15977244800023982,1402.5940306569998,None,1402.76725711,None,,85,36,46,,,,,105,32,2022_Sep_22_1228,templeton_exp2A_SD,2020.2.10,75.02113814346028,
,,,,,,,,,,,,,,,,,,,,,,118,0,118,0,,,,,,,,,,,,,,,,,,,,,,,,2.9000000000000004,1.6,2.9000000000000004,,,,,,,,,,,,,,,,,,,,,,,,,,,,,,,,,,,118,1384.5084586760001,0,8,3,7,4,6,2,9,0,0,3,1403.340394142,None,0,8,3,7,4,6,2,9,,1406.805764476,None,1406.805764476,None,1406.805764476,None,1406.805764476,None,1406.805764476,None,1406.805764476,None,1406.805764476,None,1406.805764476,None,1405.5128940040001,1406.0194130450002,1405.5128940040001,1406.0194130450002,1405.5128940040001,1406.0194130450002,None,None,down,3.668071313999917,1406.805764476,None,None,None,x,0.18150113299998338,1410.5243614059998,None,1410.7242244870001,None,,86,37,47,,,,,105,32,2022_Sep_22_1228,templeton_exp2A_SD,2020.2.10,75.02113814346028,
,,,,,,,,,,,,,,,,,,,,,,119,0,119,0,,,,,,,,,,,,,,,,,,,,,,,,2.7,2.8000000000000003,3.3000000000000003,,,,,,,,,,,,,,,,,,,,,,,,,,,,,,,,,,,119,1392.46469207,4,9,2,6,0,5,3,7,1,1,1,1411.297338698,None,4,1,2,6,0,5,3,7,,1414.5627618629999,None,1414.5627618629999,None,1414.5627618629999,None,1414.5627618629999,None,1414.5627618629999,None,1414.5627618629999,None,1414.5627618629999,None,1414.5627618629999,None,1414.669408169,1415.175937502,1414.669408169,1415.175937502,1414.669408169,1415.175937502,None,None,left,0.9084484960003465,1414.669408169,None,None,None,z,0.13279797799987136,1415.6290514680002,None,1415.7756529330002,None,,87,37,47,,,,,105,32,2022_Sep_22_1228,templeton_exp2A_SD,2020.2.10,75.02113814346028,
,,,,,,,,,,,,,,,,,,,,,,120,0,120,0,,,,,,,,,,,,,,,,,,,,,,,,2.9000000000000004,1.6,2.9000000000000004,,,,,,,,,,,,,,,,,,,,,,,,,,,,,,,,,,,120,1398.9379539520003,1,9,2,7,0,5,3,6,0,0,3,1417.774955745,None,1,9,2,7,0,5,3,6,,1421.2402979810001,None,1421.2402979810001,None,1421.2402979810001,None,1421.2402979810001,None,1421.2402979810001,None,1421.2402979810001,None,1421.2402979810001,None,1421.2402979810001,None,1419.9340885969998,1420.4405938950001,1419.9340885969998,1420.4405938950001,1419.9340885969998,1420.4405938950001,None,None,left,1.1135455939997883,1421.2402979810001,None,None,None,x,0.25802230900035283,1422.3998290769998,None,1422.679691815,None,,88,37,48,,,,,105,32,2022_Sep_22_1228,templeton_exp2A_SD,2020.2.10,75.02113814346028,
,,,,,,,,,,,,,,,,,,,,,,121,0,121,0,,,,,,,,,,,,,,,,,,,,,,,,3.5,3.6,4.1,,,,,,,,,,,,,,,,,,,,,,,,,,,,,,,,,,,121,1404.4196579289999,1,6,0,8,3,9,4,5,1,0,5,1423.252825365,None,1,6,0,8,3,9,4,5,,1427.317961901,None,1427.317961901,None,1427.317961901,None,1427.317961901,None,1427.317961901,None,1427.317961901,None,1427.317961901,None,1427.317961901,None,1427.411300807,1427.917775951,1427.411300807,1427.917775951,1427.411300807,1427.917775951,None,None,left,2.246582426000259,1427.411300807,None,None,None,c,0.1461263549999785,1429.7036947200002,None,1429.8636980110002,None,,89,37,48,,,,,105,32,2022_Sep_22_1228,templeton_exp2A_SD,2020.2.10,75.02113814346028,
,,,,,,,,,,,,,,,,,,,,,,122,0,122,0,,,,,,,,,,,,,,,,,,,,,,,,2.9000000000000004,1.6,2.9000000000000004,,,,,,,,,,,,,,,,,,,,,,,,,,,,,,,,,,,122,1411.6043879000001,4,6,2,5,1,7,3,9,0,1,5,1430.4367663770001,None,4,6,2,5,1,0,3,9,,1433.9022168969998,None,1433.9022168969998,None,1433.9022168969998,None,1433.9022168969998,None,1433.9022168969998,None,1433.9022168969998,None,1433.9022168969998,None,1433.9022168969998,None,1432.5959467639998,1433.102434272,1432.5959467639998,1433.102434272,1432.5959467639998,1433.102434272,None,None,left,0.7796271980000711,1433.9022168969998,None,None,None,z,0.13732184100035738,1434.728539461,None,1434.8884020879998,None,,90,38,49,,,,,105,32,2022_Sep_22_1228,templeton_exp2A_SD,2020.2.10,75.02113814346028,
,,,,,,,,,,,,,,,,,,,,,,123,0,123,0,,,,,,,,,,,,,,,,,,,,,,,,2.9000000000000004,1.6,2.9000000000000004,,,,,,,,,,,,,,,,,,,,,,,,,,,,,,,,,,,123,1416.6284639520002,4,9,2,7,0,5,3,6,0,1,3,1435.4616035289998,None,4,9,2,1,0,5,3,6,,1438.9269410670001,None,1438.9269410670001,None,1438.9269410670001,None,1438.9269410670001,None,1438.9269410670001,None,1438.9269410670001,None,1438.9269410670001,None,1438.9269410670001,None,1437.6207644499998,1438.1272794,1437.6207644499998,1438.1272794,1437.6207644499998,1438.1272794,None,None,left,0.7149030939999648,1438.9269410670001,None,None,None,z,0.059226774999842746,1439.6866345219998,None,1439.7665712629998,None,,91,39,50,,,,,105,32,2022_Sep_22_1228,templeton_exp2A_SD,2020.2.10,75.02113814346028,
,,,,,,,,,,,,,,,,,,,,,,124,0,124,0,,,,,,,,,,,,,,,,,,,,,,,,2.9000000000000004,1.6,2.9000000000000004,,,,,,,,,,,,,,,,,,,,,,,,,,,,,,,,,,,124,1421.507001142,4,5,1,7,3,6,2,9,0,1,0,1440.339677916,None,0,5,1,7,3,6,2,9,,1443.805089715,None,1443.805089715,None,1443.805089715,None,1443.805089715,None,1443.805089715,None,1443.805089715,None,1443.805089715,None,1443.805089715,None,1442.498827534,1443.005365999,1442.498827534,1443.005365999,1442.498827534,1443.005365999,None,None,left,0.5087534320000486,1443.805089715,None,None,None,z,0.07697126799985199,1444.3648766600002,None,1444.4581357559998,None,,92,40,51,,,,,105,32,2022_Sep_22_1228,templeton_exp2A_SD,2020.2.10,75.02113814346028,
,,,,,,,,,,,,,,,,,,,,,,125,0,125,0,,,,,,,,,,,,,,,,,,,,,,,,2.5,2.6,3.1,,,,,,,,,,,,,,,,,,,,,,,,,,,,,,,,,,,125,1426.2015804650002,2,8,0,6,4,5,1,7,1,0,0,1445.044609789,None,2,8,0,6,4,5,1,7,,1448.110127092,None,1448.110127092,None,1448.110127092,None,1448.110127092,None,1448.110127092,None,1448.110127092,None,1448.110127092,None,1448.110127092,None,1448.216740616,1448.7231514430002,1448.216740616,1448.7231514430002,1448.216740616,1448.7231514430002,None,None,left,0.7771008380000239,1448.216740616,None,None,None,z,0.0868633739996767,1449.042995768,None,1449.149728524,None,,93,40,51,,,,,105,32,2022_Sep_22_1228,templeton_exp2A_SD,2020.2.10,75.02113814346028,
,,,,,,,,,,,,,,,,,,,,,,126,0,126,0,,,,,,,,,,,,,,,,,,,,,,,,2.9000000000000004,1.6,2.9000000000000004,,,,,,,,,,,,,,,,,,,,,,,,,,,,,,,,,,,126,1430.889476917,3,6,0,8,2,5,1,9,0,0,4,1449.7227859769998,None,3,6,0,8,2,5,1,9,,1453.188180024,None,1453.188180024,None,1453.188180024,None,1453.188180024,None,1453.188180024,None,1453.188180024,None,1453.188180024,None,1453.188180024,None,1451.881958871,1452.388491636,1451.881958871,1452.388491636,1451.881958871,1452.388491636,None,None,left,1.6456574399999226,1453.188180024,None,None,None,x,0.9290040959999715,1454.880860386,None,1455.8271318640002,None,,94,40,52,,,,,105,32,2022_Sep_22_1228,templeton_exp2A_SD,2020.2.10,75.02113814346028,
,,,,,,,,,,,,,,,,,,,,,,127,0,127,0,,,,,,,,,,,,,,,,,,,,,,,,1.7,1.8,2.3,,,,,,,,,,,,,,,,,,,,,,,,,,,,,,,,,,,127,1437.5678679549999,3,9,2,5,1,7,4,6,1,1,4,1456.400250514,None,3,9,2,5,0,7,4,6,,1458.6661279359998,None,1458.6661279359998,None,1458.6661279359998,None,1458.6661279359998,None,1458.6661279359998,None,1458.6661279359998,None,1458.6661279359998,None,1458.6661279359998,None,1458.759375504,1459.2658536689999,1458.759375504,1459.2658536689999,1458.759375504,1459.2658536689999,None,None,down,1.2824679199998172,1458.759375504,None,None,None,x,0.4056259809999574,1460.0922424450002,None,1460.518696159,None,,95,40,52,,,,,105,32,2022_Sep_22_1228,templeton_exp2A_SD,2020.2.10,75.02113814346028,
,,,,,,,,,,,,,,,,,,,,,,128,0,128,0,,,,,,,,,,,,,,,,,,,,,,,,2.9000000000000004,1.6,2.9000000000000004,,,,,,,,,,,,,,,,,,,,,,,,,,,,,,,,,,,128,1442.258745494,1,8,4,6,0,9,3,5,0,1,4,1461.091802694,None,1,8,4,6,2,9,3,5,,1464.5571817470002,None,1464.5571817470002,None,1464.5571817470002,None,1464.5571817470002,None,1464.5571817470002,None,1464.5571817470002,None,1464.5571817470002,None,1464.5571817470002,None,1463.2509866419998,1463.757534177,1463.2509866419998,1463.757534177,1463.2509866419998,1463.757534177,None,None,left,0.7166692439996041,1464.5571817470002,None,None,None,z,0.13292177900029856,1465.3169247449998,None,1465.463500741,None,,96,41,53,,,,,105,32,2022_Sep_22_1228,templeton_exp2A_SD,2020.2.10,75.02113814346028,
,,,,,,,,,,,,,,,,,,,,,,129,0,129,0,,,,,,,,,,,,,,,,,,,,,,,,2.3000000000000003,2.4000000000000004,2.9000000000000004,,,,,,,,,,,,,,,,,,,,,,,,,,,,,,,,,,,129,1447.204599589,3,5,4,7,1,9,0,8,1,0,7,1466.0366118640002,None,3,5,4,7,1,9,0,8,,1468.90220338,None,1468.90220338,None,1468.90220338,None,1468.90220338,None,1468.90220338,None,1468.90220338,None,1468.90220338,None,1468.90220338,None,1468.9954792249998,1469.501992826,1468.9954792249998,1469.501992826,1468.9954792249998,1469.501992826,None,None,down,1.5903660339999988,1468.9954792249998,None,None,None,x,0.1830689439998423,1470.634781561,None,1470.834791465,None,,97,41,53,,,,,105,32,2022_Sep_22_1228,templeton_exp2A_SD,2020.2.10,75.02113814346028,
,,,,,,,,,,,,,,,,,,,,,,130,0,130,0,,,,,,,,,,,,,,,,,,,,,,,,2.7,2.8000000000000003,3.3000000000000003,,,,,,,,,,,,,,,,,,,,,,,,,,,,,,,,,,,130,1452.5749545370002,4,6,0,9,1,5,3,7,1,1,2,1471.407897846,None,4,6,2,9,1,5,3,7,,1474.6733726569998,None,1474.6733726569998,None,1474.6733726569998,None,1474.6733726569998,None,1474.6733726569998,None,1474.6733726569998,None,1474.6733726569998,None,1474.6733726569998,None,1474.7666617480002,1475.27315943,1474.7666617480002,1475.27315943,1474.7666617480002,1475.27315943,None,None,left,3.0271606109999993,1474.7666617480002,None,None,None,x,0.18840203599984306,1477.845424723,None,1478.0587291660001,None,,98,41,53,,,,,105,32,2022_Sep_22_1228,templeton_exp2A_SD,2020.2.10,75.02113814346028,
,,,,,,,,,,,,,,,,,,,,,,131,0,131,0,,,,,,,,,,,,,,,,,,,,,,,,2.3000000000000003,2.4000000000000004,2.9000000000000004,,,,,,,,,,,,,,,,,,,,,,,,,,,,,,,,,,,131,1459.799394118,2,9,3,6,1,8,0,7,1,0,5,1478.63181774,None,2,9,3,6,1,8,0,7,,1481.497484054,None,1481.497484054,None,1481.497484054,None,1481.497484054,None,1481.497484054,None,1481.497484054,None,1481.497484054,None,1481.497484054,None,1481.590779288,1482.097247297,1481.590779288,1482.097247297,1481.590779288,1482.097247297,None,None,down,1.2669675980000648,1481.590779288,None,None,None,z,0.12363244100015436,1482.9102167590001,None,1483.056877786,None,,99,41,53,,,,,105,32,2022_Sep_22_1228,templeton_exp2A_SD,2020.2.10,75.02113814346028,
