trials_2.thisRepN,trials_2.thisTrialN,trials_2.thisN,trials_2.thisIndex,Used_image_1,Used_image_2,Used_image_3,Used_image_4,Used_image_5,Used_image_6,Used_image_7,Used_image_8,Unused_image_1,Unused_image_2,trials.thisRepN,trials.thisTrialN,trials.thisN,trials.thisIndex,trials_4.thisRepN,trials_4.thisTrialN,trials_4.thisN,trials_4.thisIndex,trials_10.thisRepN,trials_10.thisTrialN,trials_10.thisN,trials_10.thisIndex,welcome.started,welcome.stopped,pointer_dot_0.started,pointer_dot_0.stopped,pointer_dot_1.started,pointer_dot_1.stopped,pointer_dot_2.started,pointer_dot_2.stopped,SD_image.started,SD_image.stopped,memDisplayOnTimePractice,mem_image_0_practice,mem_image_1_practice,mem_image_2_practice,mem_image_3_practice,mem_image_4_practice,mem_image_5_practice,mem_image_6_practice,mem_image_7_practice,retention_interval_practice,retro_0_post_1_practice,change_or_no_practice,cue_location_practice,mem_display_to_test_array_duration_s,mem_display_to_cue_duration_s,routine_duration_s,array_image_1f.started,array_image_1f.stopped,array_image_2f.started,array_image_2f.stopped,array_image_3f.started,array_image_3f.stopped,array_image_4f.started,array_image_4f.stopped,array_image_5f.started,array_image_5f.stopped,array_image_6f.started,array_image_6f.stopped,array_image_7f.started,array_image_7f.stopped,array_image_8f.started,array_image_8f.stopped,pointer_dot_0b.started,pointer_dot_0b.stopped,pointer_dot_1b.started,pointer_dot_1b.stopped,pointer_dot_2b.started,pointer_dot_2b.stopped,sd_practice_resp.keys,sd_practice_resp.rt,sd_practice_resp.started,sd_practice_resp.stopped,text_10.started,text_10.stopped,conf_practice_resp.keys,conf_practice_resp.rt,conf_practice_resp.started,conf_practice_resp.stopped,image.started,image.stopped,training_trial_index,memDisplayOnTimeTraining,mem_image_0_training,mem_image_1_training,mem_image_2_training,mem_image_3_training,mem_image_4_training,mem_image_5_training,mem_image_6_training,mem_image_7_training,retro_0_post_1_training,change_or_no_training,cue_location_training,array_image_1l.started,array_image_1l.stopped,test_image_0_training,test_image_1_training,test_image_2_training,test_image_3_training,test_image_4_training,test_image_5_training,test_image_6_training,test_image_7_training,consecutive_correct_retro_short,array_image_1m.started,array_image_1m.stopped,array_image_2m.started,array_image_2m.stopped,array_image_3m.started,array_image_3m.stopped,array_image_4m.started,array_image_4m.stopped,array_image_5m.started,array_image_5m.stopped,array_image_6m.started,array_image_6m.stopped,array_image_7m.started,array_image_7m.stopped,array_image_8m.started,array_image_8m.stopped,pointer_dot_0d.started,pointer_dot_0d.stopped,pointer_dot_1d.started,pointer_dot_1d.stopped,pointer_dot_2d.started,pointer_dot_2d.stopped,reminder_training.started,reminder_training.stopped,sd_training_resp.keys,sd_training_resp.rt,sd_training_resp.started,sd_training_resp.stopped,text_15.started,text_15.stopped,conf_training_resp.keys,conf_training_resp.rt,conf_training_resp.started,conf_training_resp.stopped,text.started,text.stopped,short_interval_training_finished,training_trial_index_long_this_block,correct_retro_long_this_block,retro_trials_long_this_block,long_interval_block_finished,long_block_retro_acc,reached_criterion,run_out_of_trials,participant,mapping,date,expName,psychopyVersion,frameRate,
,,,,,,,,,,,,,,0,0,0,0,,,,,,,,,9.959867473000031,None,53.809860068000035,None,53.809860068000035,None,53.809860068000035,None,82.02584336199993,None,96.73680467100007,2,8,4,6,3,9,0,7,1.6,1,1,3,1.5,1.6,2.1,108.81571584099993,None,108.81571584099993,None,108.81571584099993,None,108.81571584099993,None,108.81571584099993,None,108.81571584099993,None,108.81571584099993,None,108.81571584099993,None,108.90898994400004,109.41558474099998,108.90898994400004,109.41558474099998,108.90898994400004,109.41558474099998,left,6.63467265700001,108.90898994400004,None,115.58648405899999,None,c,8.357097333999945,115.58648405899999,None,115.58648405899999,None,,,,,,,,,,,,,,,,,,,,,,,,,,,,,,,,,,,,,,,,,,,,,,,,,,,,,,,,,,,,,,,,,,,,,106,23,2022_Sep_20_1409,templeton_exp2A_SD,2020.2.10,74.95432321016702,
,,,,,,,,,,,,,,1,0,1,0,,,,,,,,,,,,,,,,,,,118.68507225000008,0,6,3,8,4,9,2,7,1.6,1,0,7,1.5,1.6,2.1,130.75418497600003,None,130.75418497600003,None,130.75418497600003,None,130.75418497600003,None,130.75418497600003,None,130.75418497600003,None,130.75418497600003,None,130.75418497600003,None,130.86069904700003,131.36723043400002,130.86069904700003,131.36723043400002,130.86069904700003,131.36723043400002,down,2.0110533949998626,130.86069904700003,None,132.89992130399992,None,x,3.5877304989999175,132.89992130399992,None,132.89992130399992,None,,,,,,,,,,,,,,,,,,,,,,,,,,,,,,,,,,,,,,,,,,,,,,,,,,,,,,,,,,,,,,,,,,,,,106,23,2022_Sep_20_1409,templeton_exp2A_SD,2020.2.10,74.95432321016702,
,,,,,,,,,,,,,,2,0,2,0,,,,,,,,,,,,,,,,,,,128.30983726199997,1,6,4,7,2,8,0,9,1.6,1,1,2,1.5,1.6,2.1,140.37714488799998,None,140.37714488799998,None,140.37714488799998,None,140.37714488799998,None,140.37714488799998,None,140.37714488799998,None,140.37714488799998,None,140.37714488799998,None,140.48372766300008,140.9901383009999,140.48372766300008,140.9901383009999,140.48372766300008,140.9901383009999,down,5.4918452299998535,140.48372766300008,None,146.00161587699995,None,x,2.1820667069998763,146.00161587699995,None,146.00161587699995,None,,,,,,,,,,,,,,,,,,,,,,,,,,,,,,,,,,,,,,,,,,,,,,,,,,,,,,,,,,,,,,,,,,,,,106,23,2022_Sep_20_1409,templeton_exp2A_SD,2020.2.10,74.95432321016702,
,,,,,,,,,,,,,,3,0,3,0,,,,,,,,,,,,,,,,,,,145.353313114,2,8,1,9,4,5,3,7,1.6,1,1,6,1.5,1.6,2.1,157.41055857399988,None,157.41055857399988,None,157.41055857399988,None,157.41055857399988,None,157.41055857399988,None,157.41055857399988,None,157.41055857399988,None,157.41055857399988,None,157.50403254999992,158.01040431299998,157.50403254999992,158.01040431299998,157.50403254999992,158.01040431299998,down,1.8316258380000363,157.50403254999992,None,159.35655705299996,None,z,0.6751181679999263,159.35655705299996,None,159.35655705299996,None,,,,,,,,,,,,,,,,,,,,,,,,,,,,,,,,,,,,,,,,,,,,,,,,,,,,,,,,,,,,,,,,,,,,,106,23,2022_Sep_20_1409,templeton_exp2A_SD,2020.2.10,74.95432321016702,
,,,,,,,,,,,,,,4,0,4,0,,,,,,,,,,,,,,,,,,,152.25805112900002,2,5,3,6,0,9,1,8,1.6,0,1,7,2.9000000000000004,1.6,2.9000000000000004,165.714169222,None,165.714169222,None,165.714169222,None,165.714169222,None,165.714169222,None,165.714169222,None,165.714169222,None,165.714169222,None,164.40800797899988,164.91445303699993,164.40800797899988,164.91445303699993,164.40800797899988,164.91445303699993,down,1.3815151429998878,165.714169222,None,167.11362861499993,None,z,0.942047859000013,167.11362861499993,None,167.11362861499993,None,,,,,,,,,,,,,,,,,,,,,,,,,,,,,,,,,,,,,,,,,,,,,,,,,,,,,,,,,,,,,,,,,,,,,106,23,2022_Sep_20_1409,templeton_exp2A_SD,2020.2.10,74.95432321016702,
,,,,,,,,,,,,,,5,0,5,0,,,,,,,,,,,,,,,,,,,159.38909199199998,3,8,0,6,4,7,2,5,1.6,0,0,5,2.9000000000000004,1.6,2.9000000000000004,172.84478931400008,None,172.84478931400008,None,172.84478931400008,None,172.84478931400008,None,172.84478931400008,None,172.84478931400008,None,172.84478931400008,None,172.84478931400008,None,171.55192601099998,172.05840493999995,171.55192601099998,172.05840493999995,171.55192601099998,172.05840493999995,left,1.4108251329998893,172.84478931400008,None,174.27092501800007,None,z,1.320708016000026,174.27092501800007,None,174.27092501800007,None,,,,,,,,,,,,,,,,,,,,,,,,,,,,,,,,,,,,,,,,,,,,,,,,,,,,,,,,,,,,,,,,,,,,,106,23,2022_Sep_20_1409,templeton_exp2A_SD,2020.2.10,74.95432321016702,
,,,,,,,,,,,,,,6,0,6,0,,,,,,,,,,,,,,,,,,,167.17292498300003,0,8,3,9,1,6,4,5,1.6,0,0,0,2.9000000000000004,1.6,2.9000000000000004,180.62848909800005,None,180.62848909800005,None,180.62848909800005,None,180.62848909800005,None,180.62848909800005,None,180.62848909800005,None,180.62848909800005,None,180.62848909800005,None,179.335833976,179.8421727519999,179.335833976,179.8421727519999,179.335833976,179.8421727519999,down,1.2511780590000399,180.62848909800005,None,181.89470989899996,None,z,0.9608707780000714,181.89470989899996,None,181.89470989899996,None,,,,,,,,,,,,,,,,,,,,,,,,,,,,,,,,,,,,,,,,,,,,,,,,,,,,,,,,,,,,,,,,,,,,,106,23,2022_Sep_20_1409,templeton_exp2A_SD,2020.2.10,74.95432321016702,
,,,,,,,,,,,,,,,,,,,,,,0,0,0,0,,,,,,,,,,,,,,,,,,,,,,,,0.65,0.75,1.25,,,,,,,,,,,,,,,,,,,,,,,,,,,,,,,,,,,0,177.45379264500002,1,8,4,6,3,7,2,5,1,1,6,187.45257989800007,None,1,8,4,6,3,7,0,5,0,188.67880647900006,None,188.67880647900006,None,188.67880647900006,None,188.67880647900006,None,188.67880647900006,None,188.67880647900006,None,188.67880647900006,None,188.67880647900006,None,188.7854384279999,189.29187610600002,188.7854384279999,189.29187610600002,188.7854384279999,189.29187610600002,None,None,down,4.014230699000109,188.7854384279999,None,None,None,z,5.1597130449999895,192.86394771899995,None,198.04861336,None,,,,,,,,,106,23,2022_Sep_20_1409,templeton_exp2A_SD,2020.2.10,74.95432321016702,
,,,,,,,,,,,,,,,,,,,,,,1,0,1,0,,,,,,,,,,,,,,,,,,,,,,,,2.05,0.75,2.05,,,,,,,,,,,,,,,,,,,,,,,,,,,,,,,,,,,1,188.6367477880001,4,5,0,7,3,9,1,6,0,0,3,198.6350175739999,None,4,5,0,7,3,9,1,6,0,201.26068559600003,None,201.26068559600003,None,201.26068559600003,None,201.26068559600003,None,201.26068559600003,None,201.26068559600003,None,201.26068559600003,None,201.26068559600003,None,199.95453461500006,200.461112835,199.95453461500006,200.461112835,199.95453461500006,200.461112835,None,None,down,2.618980147000002,201.26068559600003,None,None,None,z,0.4253119410000181,203.92636530799996,None,204.36614334799992,None,,,,,,,,,106,23,2022_Sep_20_1409,templeton_exp2A_SD,2020.2.10,74.95432321016702,
,,,,,,,,,,,,,,,,,,,,,,2,0,2,0,,,,,,,,,,,,,,,,,,,,,,,,0.65,0.75,1.25,,,,,,,,,,,,,,,,,,,,,,,,,,,,,,,,,,,2,194.9542427230001,4,9,1,7,0,6,2,8,1,0,7,204.952678183,None,4,9,1,7,0,6,2,8,0,206.16557704599995,None,206.16557704599995,None,206.16557704599995,None,206.16557704599995,None,206.16557704599995,None,206.16557704599995,None,206.16557704599995,None,206.16557704599995,None,206.272179972,206.77855662000002,206.272179972,206.77855662000002,206.272179972,206.77855662000002,None,None,left,2.775479875999963,206.272179972,None,None,None,z,1.4379519300000538,209.09771597100007,None,210.55046494399994,None,,,,,,,,,106,23,2022_Sep_20_1409,templeton_exp2A_SD,2020.2.10,74.95432321016702,
,,,,,,,,,,,,,,,,,,,,,,3,0,3,0,,,,,,,,,,,,,,,,,,,,,,,,2.05,0.75,2.05,,,,,,,,,,,,,,,,,,,,,,,,,,,,,,,,,,,3,201.13820467799997,3,9,4,5,0,7,1,6,0,0,7,211.1370033180001,None,3,9,4,5,0,7,1,6,0,213.76272489100006,None,213.76272489100006,None,213.76272489100006,None,213.76272489100006,None,213.76272489100006,None,213.76272489100006,None,213.76272489100006,None,213.76272489100006,None,212.469831504,212.976288416,212.469831504,212.976288416,212.469831504,212.976288416,None,None,down,4.252839663000032,213.76272489100006,None,228.05055904000005,None,z,128.54805224400002,218.06765360300005,None,346.6322344129999,None,,,,,,,,,106,23,2022_Sep_20_1409,templeton_exp2A_SD,2020.2.10,74.95432321016702,
,,,,,,,,,,,,,,,,,,,,,,4,0,4,0,,,,,,,,,,,,,,,,,,,,,,,,2.05,0.75,2.05,,,,,,,,,,,,,,,,,,,,,,,,,,,,,,,,,,,4,337.22140851200015,4,6,1,7,2,8,0,9,0,0,0,347.21871748800004,None,4,6,1,7,2,8,0,9,1,349.8443149689999,None,349.8443149689999,None,349.8443149689999,None,349.8443149689999,None,349.8443149689999,None,349.8443149689999,None,349.8443149689999,None,349.8443149689999,None,348.551685786,349.05800530400006,348.551685786,349.05800530400006,348.551685786,349.05800530400006,None,None,left,1.1872447389998797,349.8443149689999,None,None,None,z,0.8837438580001162,351.0839273480001,None,351.9902045890001,None,,,,,,,,,106,23,2022_Sep_20_1409,templeton_exp2A_SD,2020.2.10,74.95432321016702,
,,,,,,,,,,,,,,,,,,,,,,5,0,5,0,,,,,,,,,,,,,,,,,,,,,,,,2.05,0.75,2.05,,,,,,,,,,,,,,,,,,,,,,,,,,,,,,,,,,,5,342.57777928400014,4,7,1,8,0,9,2,6,0,0,4,352.5767295999999,None,4,7,1,8,0,9,2,6,2,355.2024267689999,None,355.2024267689999,None,355.2024267689999,None,355.2024267689999,None,355.2024267689999,None,355.2024267689999,None,355.2024267689999,None,355.2024267689999,None,353.8961203890001,354.402726263,353.8961203890001,354.402726263,353.8961203890001,354.402726263,None,None,left,2.7172405230001004,355.2024267689999,None,None,None,z,2.2222374039999977,357.9613964529999,None,360.20045505200005,None,,,,,,,,,106,23,2022_Sep_20_1409,templeton_exp2A_SD,2020.2.10,74.95432321016702,
,,,,,,,,,,,,,,,,,,,,,,6,0,6,0,,,,,,,,,,,,,,,,,,,,,,,,0.65,0.75,1.25,,,,,,,,,,,,,,,,,,,,,,,,,,,,,,,,,,,6,350.7875087740001,1,7,0,5,3,9,2,6,1,0,7,360.7869182300001,None,1,7,0,5,3,9,2,6,2,362.0131672719999,None,362.0131672719999,None,362.0131672719999,None,362.0131672719999,None,362.0131672719999,None,362.0131672719999,None,362.0131672719999,None,362.0131672719999,None,362.106418201,362.6129177969999,362.106418201,362.6129177969999,362.106418201,362.6129177969999,None,None,left,1.9492030499998236,362.106418201,None,None,None,z,1.0139866769998207,364.105653865,None,365.14523101500004,None,,,,,,,,,106,23,2022_Sep_20_1409,templeton_exp2A_SD,2020.2.10,74.95432321016702,
,,,,,,,,,,,,,,,,,,,,,,7,0,7,0,,,,,,,,,,,,,,,,,,,,,,,,2.05,0.75,2.05,,,,,,,,,,,,,,,,,,,,,,,,,,,,,,,,,,,7,355.731601684,0,6,4,8,2,7,3,9,0,0,0,365.73181325099995,None,0,6,4,8,2,7,3,9,3,368.3573855540001,None,368.3573855540001,None,368.3573855540001,None,368.3573855540001,None,368.3573855540001,None,368.3573855540001,None,368.3573855540001,None,368.3573855540001,None,367.0512777409999,367.5577100820001,367.0512777409999,367.5577100820001,367.0512777409999,367.5577100820001,None,None,left,1.3142773459999262,368.3573855540001,None,None,None,z,0.6987236889999622,369.7169461369999,None,370.43655921999994,None,,,,,,,,,106,23,2022_Sep_20_1409,templeton_exp2A_SD,2020.2.10,74.95432321016702,
,,,,,,,,,,,,,,,,,,,,,,8,0,8,0,,,,,,,,,,,,,,,,,,,,,,,,0.65,0.75,1.25,,,,,,,,,,,,,,,,,,,,,,,,,,,,,,,,,,,8,361.02243449800017,0,8,1,7,2,9,4,5,1,0,0,371.0096702569999,None,0,8,1,7,2,9,4,5,3,372.2225920630001,None,372.2225920630001,None,372.2225920630001,None,372.2225920630001,None,372.2225920630001,None,372.2225920630001,None,372.2225920630001,None,372.2225920630001,None,372.3291691940001,372.8356149849999,372.3291691940001,372.8356149849999,372.3291691940001,372.8356149849999,None,None,left,1.60650730999987,372.3291691940001,None,None,None,z,0.5857289329999276,373.98192924499995,None,374.58164407699996,None,,,,,,,,,106,23,2022_Sep_20_1409,templeton_exp2A_SD,2020.2.10,74.95432321016702,
,,,,,,,,,,,,,,,,,,,,,,9,0,9,0,,,,,,,,,,,,,,,,,,,,,,,,2.05,0.75,2.05,,,,,,,,,,,,,,,,,,,,,,,,,,,,,,,,,,,9,365.16976514099997,0,9,4,7,3,8,1,6,0,0,3,375.16819011100006,None,0,9,4,7,3,8,1,6,4,377.79380882600003,None,377.79380882600003,None,377.79380882600003,None,377.79380882600003,None,377.79380882600003,None,377.79380882600003,None,377.79380882600003,None,377.79380882600003,None,376.50095503500006,377.007402574,376.50095503500006,377.007402574,376.50095503500006,377.007402574,None,None,left,0.8937609980000616,377.79380882600003,None,None,None,z,0.5876577809999617,378.7400156189999,None,379.3531992599999,None,,,,,,,,,106,23,2022_Sep_20_1409,templeton_exp2A_SD,2020.2.10,74.95432321016702,
,,,,,,,,,,,,,,,,,,,,,,10,0,10,0,,,,,,,,,,,,,,,,,,,,,,,,0.65,0.75,1.25,,,,,,,,,,,,,,,,,,,,,,,,,,,,,,,,,,,10,369.93727747,0,8,4,7,3,9,2,5,1,1,6,379.9263416649999,None,0,8,4,7,3,9,1,5,4,381.139221571,None,381.139221571,None,381.139221571,None,381.139221571,None,381.139221571,None,381.139221571,None,381.139221571,None,381.139221571,None,381.24578818200007,381.75229710300005,381.24578818200007,381.75229710300005,381.24578818200007,381.75229710300005,None,None,left,2.3058367989999624,381.24578818200007,None,None,None,z,0.5760686400001305,383.59159736900006,None,384.191326486,None,,,,,,,,,106,23,2022_Sep_20_1409,templeton_exp2A_SD,2020.2.10,74.95432321016702,
,,,,,,,,,,,,,,,,,,,,,,11,0,11,0,,,,,,,,,,,,,,,,,,,,,,,,2.05,0.75,2.05,,,,,,,,,,,,,,,,,,,,,,,,,,,,,,,,,,,11,374.7792443210001,1,6,4,7,0,5,3,9,0,0,6,384.77790346999996,None,1,6,4,7,0,5,3,9,5,387.40341498299995,None,387.40341498299995,None,387.40341498299995,None,387.40341498299995,None,387.40341498299995,None,387.40341498299995,None,387.40341498299995,None,387.40341498299995,None,386.09738350299995,386.6039111539999,386.09738350299995,386.6039111539999,386.09738350299995,386.6039111539999,None,None,left,0.772306049000008,387.40341498299995,None,None,None,z,0.3430732369999987,388.2165571380001,None,388.57639236299997,None,,,,,,,,,106,23,2022_Sep_20_1409,templeton_exp2A_SD,2020.2.10,74.95432321016702,
,,,,,,,,,,,,,,,,,,,,,,12,0,12,0,,,,,,,,,,,,,,,,,,,,,,,,2.05,0.75,2.05,,,,,,,,,,,,,,,,,,,,,,,,,,,,,,,,,,,12,379.16174982200005,1,8,0,9,2,5,4,7,0,1,0,389.1495105639999,None,3,8,0,9,2,5,4,7,6,391.76192401899993,None,391.76192401899993,None,391.76192401899993,None,391.76192401899993,None,391.76192401899993,None,391.76192401899993,None,391.76192401899993,None,391.76192401899993,None,390.45567062400005,390.962079851,390.45567062400005,390.962079851,390.45567062400005,390.962079851,None,None,down,0.9177428000000418,391.76192401899993,None,None,None,z,1.4382290669998383,392.7214531939999,None,394.1742070139999,None,,,,,,,,,106,23,2022_Sep_20_1409,templeton_exp2A_SD,2020.2.10,74.95432321016702,
,,,,,,,,,,,,,,,,,,,,,,13,0,13,0,,,,,,,,,,,,,,,,,,,,,,,,0.65,0.75,1.25,,,,,,,,,,,,,,,,,,,,,,,,,,,,,,,,,,,13,384.7618635850001,3,8,4,9,0,7,1,6,1,1,0,394.76080638100007,None,2,8,4,9,0,7,1,6,6,395.9869094190001,None,395.9869094190001,None,395.9869094190001,None,395.9869094190001,None,395.9869094190001,None,395.9869094190001,None,395.9869094190001,None,395.9869094190001,None,396.0935329040001,396.6000270929999,396.0935329040001,396.6000270929999,396.0935329040001,396.6000270929999,None,None,down,1.3220928160001222,396.0935329040001,None,None,None,z,0.6053397939999741,397.466329546,None,398.092784168,None,,,,,,,,,106,23,2022_Sep_20_1409,templeton_exp2A_SD,2020.2.10,74.95432321016702,
,,,,,,,,,,,,,,,,,,,,,,14,0,14,0,,,,,,,,,,,,,,,,,,,,,,,,0.65,0.75,1.25,,,,,,,,,,,,,,,,,,,,,,,,,,,,,,,,,,,14,388.67945626899996,4,7,3,5,2,6,0,8,1,0,0,398.679164271,None,4,7,3,5,2,6,0,8,6,399.9053547379999,None,399.9053547379999,None,399.9053547379999,None,399.9053547379999,None,399.9053547379999,None,399.9053547379999,None,399.9053547379999,None,399.9053547379999,None,399.99882236200006,400.5052597900001,399.99882236200006,400.5052597900001,399.99882236200006,400.5052597900001,None,None,left,1.1848513779998484,399.99882236200006,None,None,None,z,0.6067774800001189,401.22490340700006,None,401.8513277090001,None,,,,,,,,,106,23,2022_Sep_20_1409,templeton_exp2A_SD,2020.2.10,74.95432321016702,
,,,,,,,,,,,,,,,,,,,,,,15,0,15,0,,,,,,,,,,,,,,,,,,,,,,,,0.65,0.75,1.25,,,,,,,,,,,,,,,,,,,,,,,,,,,,,,,,,,,15,403.12471436300007,4,7,0,6,3,5,1,8,1,1,5,413.127099565,None,4,7,0,6,3,2,1,8,6,414.3531889149999,None,414.3531889149999,None,414.3531889149999,None,414.3531889149999,None,414.3531889149999,None,414.3531889149999,None,414.3531889149999,None,414.3531889149999,None,414.44659640500004,414.953062714,414.44659640500004,414.953062714,414.44659640500004,414.953062714,None,None,down,1.3130615879999823,414.44659640500004,None,None,None,z,1.0895690820000254,415.80609556900004,None,416.91231670599996,None,,,,,,,,,106,23,2022_Sep_20_1409,templeton_exp2A_SD,2020.2.10,74.95432321016702,
,,,,,,,,,,,,,,,,,,,,,,16,0,16,0,,,,,,,,,,,,,,,,,,,,,,,,2.05,0.75,2.05,,,,,,,,,,,,,,,,,,,,,,,,,,,,,,,,,,,16,407.4976923040001,1,6,3,9,4,8,2,5,0,0,4,417.48538667899993,None,1,6,3,9,4,8,2,5,0,420.0977687320001,None,420.0977687320001,None,420.0977687320001,None,420.0977687320001,None,420.0977687320001,None,420.0977687320001,None,420.0977687320001,None,420.0977687320001,None,418.8049401410001,419.31136496399995,418.8049401410001,419.31136496399995,418.8049401410001,419.31136496399995,None,None,down,1.1658856190001643,420.0977687320001,None,None,None,z,0.4330343429999175,421.3106468199999,None,421.76376136299996,None,,,,,,,,,106,23,2022_Sep_20_1409,templeton_exp2A_SD,2020.2.10,74.95432321016702,
,,,,,,,,,,,,,,,,,,,,,,17,0,17,0,,,,,,,,,,,,,,,,,,,,,,,,0.65,0.75,1.25,,,,,,,,,,,,,,,,,,,,,,,,,,,,,,,,,,,17,412.34935466800016,0,7,4,5,3,9,1,8,1,0,4,422.336893488,None,0,7,4,5,3,9,1,8,0,423.549793271,None,423.549793271,None,423.549793271,None,423.549793271,None,423.549793271,None,423.549793271,None,423.549793271,None,423.549793271,None,423.65640535700004,424.16289411699995,423.65640535700004,424.16289411699995,423.65640535700004,424.16289411699995,None,None,left,2.1832736700000623,423.65640535700004,None,None,None,z,0.40544547799981956,425.8822286479999,None,426.3087221819999,None,,,,,,,,,106,23,2022_Sep_20_1409,templeton_exp2A_SD,2020.2.10,74.95432321016702,
,,,,,,,,,,,,,,,,,,,,,,18,0,18,0,,,,,,,,,,,,,,,,,,,,,,,,2.05,0.75,2.05,,,,,,,,,,,,,,,,,,,,,,,,,,,,,,,,,,,18,416.894004427,0,5,1,9,3,6,2,8,0,0,1,426.8818937440001,None,0,5,1,9,3,6,2,8,1,429.49418782199996,None,429.49418782199996,None,429.49418782199996,None,429.49418782199996,None,429.49418782199996,None,429.49418782199996,None,429.49418782199996,None,429.49418782199996,None,428.20136413599994,428.707855827,428.20136413599994,428.707855827,428.20136413599994,428.707855827,None,None,left,1.0974657699998716,429.49418782199996,None,None,None,z,0.46319231400002536,430.64048881200006,None,431.120267455,None,,,,,,,,,106,23,2022_Sep_20_1409,templeton_exp2A_SD,2020.2.10,74.95432321016702,
,,,,,,,,,,,,,,,,,,,,,,19,0,19,0,,,,,,,,,,,,,,,,,,,,,,,,2.05,0.75,2.05,,,,,,,,,,,,,,,,,,,,,,,,,,,,,,,,,,,19,421.7069149050001,0,7,4,6,2,9,3,5,0,1,3,431.7067816869999,None,0,7,4,1,2,9,3,5,2,434.3190551739999,None,434.3190551739999,None,434.3190551739999,None,434.3190551739999,None,434.3190551739999,None,434.3190551739999,None,434.3190551739999,None,434.3190551739999,None,433.0261670489999,433.532745727,433.0261670489999,433.532745727,433.0261670489999,433.532745727,None,None,down,1.2965953180000724,434.3190551739999,None,None,None,z,0.44651145599982556,435.66516602,None,436.13172279700007,None,,,,,,,,,106,23,2022_Sep_20_1409,templeton_exp2A_SD,2020.2.10,74.95432321016702,
,,,,,,,,,,,,,,,,,,,,,,20,0,20,0,,,,,,,,,,,,,,,,,,,,,,,,2.05,0.75,2.05,,,,,,,,,,,,,,,,,,,,,,,,,,,,,,,,,,,20,426.718471768,2,6,4,9,1,7,3,5,0,0,3,436.718148894,None,2,6,4,9,1,7,3,5,0,439.34375187,None,439.34375187,None,439.34375187,None,439.34375187,None,439.34375187,None,439.34375187,None,439.34375187,None,439.34375187,None,438.0377369759999,438.5441121409999,438.0377369759999,438.5441121409999,438.0377369759999,438.5441121409999,None,None,down,1.6159020390000478,439.34375187,None,None,None,z,0.35781269700009943,441.00986536799996,None,441.38299617300004,None,,,,,,,,,106,23,2022_Sep_20_1409,templeton_exp2A_SD,2020.2.10,74.95432321016702,
,,,,,,,,,,,,,,,,,,,,,,21,0,21,0,,,,,,,,,,,,,,,,,,,,,,,,2.05,0.75,2.05,,,,,,,,,,,,,,,,,,,,,,,,,,,,,,,,,,,21,431.9680107240001,4,9,1,5,2,8,3,6,0,1,3,441.9561001310001,None,4,9,1,0,2,8,3,6,1,444.56845021799995,None,444.56845021799995,None,444.56845021799995,None,444.56845021799995,None,444.56845021799995,None,444.56845021799995,None,444.56845021799995,None,444.56845021799995,None,443.27563705700004,443.78219148900007,443.27563705700004,443.78219148900007,443.27563705700004,443.78219148900007,None,None,down,0.9591715229998954,444.56845021799995,None,None,None,z,0.41568897000001925,445.56798232799997,None,446.0079760430001,None,,,,,,,,,106,23,2022_Sep_20_1409,templeton_exp2A_SD,2020.2.10,74.95432321016702,
,,,,,,,,,,,,,,,,,,,,,,22,0,22,0,,,,,,,,,,,,,,,,,,,,,,,,0.65,0.75,1.25,,,,,,,,,,,,,,,,,,,,,,,,,,,,,,,,,,,22,436.5956454930001,3,8,1,9,2,6,0,7,1,1,7,446.59443884200005,None,3,8,1,9,2,6,0,4,1,447.8072404950001,None,447.8072404950001,None,447.8072404950001,None,447.8072404950001,None,447.8072404950001,None,447.8072404950001,None,447.8072404950001,None,447.8072404950001,None,447.913943562,448.420376906,447.913943562,448.420376906,447.913943562,448.420376906,None,None,down,4.221729751999874,447.913943562,None,None,None,z,0.40463095299992347,452.17895407700007,None,452.605413884,None,,,,,,,,,106,23,2022_Sep_20_1409,templeton_exp2A_SD,2020.2.10,74.95432321016702,
,,,,,,,,,,,,,,,,,,,,,,23,0,23,0,,,,,,,,,,,,,,,,,,,,,,,,2.05,0.75,2.05,,,,,,,,,,,,,,,,,,,,,,,,,,,,,,,,,,,23,443.1922960280001,4,9,1,8,3,5,0,6,0,0,1,453.19186657599994,None,4,9,1,8,3,5,0,6,2,455.80426386499994,None,455.80426386499994,None,455.80426386499994,None,455.80426386499994,None,455.80426386499994,None,455.80426386499994,None,455.80426386499994,None,455.80426386499994,None,454.5114385049999,455.0178822119999,454.5114385049999,455.0178822119999,454.5114385049999,455.0178822119999,None,None,left,1.2433872240001165,455.80426386499994,None,None,None,z,0.5586521059999541,457.0970762300001,None,457.67021500400006,None,,,,,,,,,106,23,2022_Sep_20_1409,templeton_exp2A_SD,2020.2.10,74.95432321016702,
,,,,,,,,,,,,,,,,,,,,,,24,0,24,0,,,,,,,,,,,,,,,,,,,,,,,,2.05,0.75,2.05,,,,,,,,,,,,,,,,,,,,,,,,,,,,,,,,,,,24,448.25761265200003,0,6,3,9,4,8,1,7,0,0,3,458.256668559,None,0,6,3,9,4,8,1,7,0,460.88239118399997,None,460.88239118399997,None,460.88239118399997,None,460.88239118399997,None,460.88239118399997,None,460.88239118399997,None,460.88239118399997,None,460.88239118399997,None,459.58938390000003,460.0960094259999,459.58938390000003,460.0960094259999,459.58938390000003,460.0960094259999,None,None,down,4.397321179000073,460.88239118399997,None,None,None,x,1.4150626519999605,465.320604754,None,466.7600621429999,None,,,,,,,,,106,23,2022_Sep_20_1409,templeton_exp2A_SD,2020.2.10,74.95432321016702,
,,,,,,,,,,,,,,,,,,,,,,25,0,25,0,,,,,,,,,,,,,,,,,,,,,,,,0.65,0.75,1.25,,,,,,,,,,,,,,,,,,,,,,,,,,,,,,,,,,,25,457.345237796,2,5,3,8,4,7,1,9,1,0,0,467.33322192900005,None,2,5,3,8,4,7,1,9,0,468.5460701310001,None,468.5460701310001,None,468.5460701310001,None,468.5460701310001,None,468.5460701310001,None,468.5460701310001,None,468.5460701310001,None,468.5460701310001,None,468.6393950270001,469.14587781499995,468.6393950270001,469.14587781499995,468.6393950270001,469.14587781499995,None,None,left,2.512301804000117,468.6393950270001,None,None,None,z,0.42517941200003406,471.19848498400006,None,471.6382451709999,None,,,,,,,,,106,23,2022_Sep_20_1409,templeton_exp2A_SD,2020.2.10,74.95432321016702,
,,,,,,,,,,,,,,,,,,,,,,26,0,26,0,,,,,,,,,,,,,,,,,,,,,,,,2.05,0.75,2.05,,,,,,,,,,,,,,,,,,,,,,,,,,,,,,,,,,,26,462.2246236400001,4,6,0,8,3,7,2,9,0,0,6,472.2246396820001,None,4,6,0,8,3,7,2,9,0,474.8503361999999,None,474.8503361999999,None,474.8503361999999,None,474.8503361999999,None,474.8503361999999,None,474.8503361999999,None,474.8503361999999,None,474.8503361999999,None,473.54416713599994,474.05066020899994,473.54416713599994,474.05066020899994,473.54416713599994,474.05066020899994,None,None,down,1.7412919690000308,474.8503361999999,None,None,None,z,0.4271817840001404,476.6364011149999,None,477.08955461000005,None,,,,,,,,,106,23,2022_Sep_20_1409,templeton_exp2A_SD,2020.2.10,74.95432321016702,
,,,,,,,,,,,,,,,,,,,,,,27,0,27,0,,,,,,,,,,,,,,,,,,,,,,,,0.65,0.75,1.25,,,,,,,,,,,,,,,,,,,,,,,,,,,,,,,,,,,27,467.67626507800014,1,7,2,9,4,6,3,5,1,1,3,477.675989843,None,1,7,2,0,4,6,3,5,0,478.90215626200006,None,478.90215626200006,None,478.90215626200006,None,478.90215626200006,None,478.90215626200006,None,478.90215626200006,None,478.90215626200006,None,478.90215626200006,None,478.99553552,479.5019338079999,478.99553552,479.5019338079999,478.99553552,479.5019338079999,None,None,down,2.5881054369999674,478.99553552,None,None,None,z,0.21318530200005625,481.63445528400007,None,481.86105068200004,None,,,,,,,,,106,23,2022_Sep_20_1409,templeton_exp2A_SD,2020.2.10,74.95432321016702,
,,,,,,,,,,,,,,,,,,,,,,28,0,28,0,,,,,,,,,,,,,,,,,,,,,,,,0.65,0.75,1.25,,,,,,,,,,,,,,,,,,,,,,,,,,,,,,,,,,,28,472.44688672200004,0,6,4,7,2,5,3,9,1,1,1,482.4341946289999,None,0,1,4,7,2,5,3,9,0,483.64704024699995,None,483.64704024699995,None,483.64704024699995,None,483.64704024699995,None,483.64704024699995,None,483.64704024699995,None,483.64704024699995,None,483.64704024699995,None,483.75371264499995,484.2600956419999,483.75371264499995,484.2600956419999,483.75371264499995,484.2600956419999,None,None,left,1.925963604999879,483.75371264499995,None,None,None,z,1.273472811000147,485.7262107649999,None,487.0190511389999,None,,,,,,,,,106,23,2022_Sep_20_1409,templeton_exp2A_SD,2020.2.10,74.95432321016702,
,,,,,,,,,,,,,,,,,,,,,,29,0,29,0,,,,,,,,,,,,,,,,,,,,,,,,0.65,0.75,1.25,,,,,,,,,,,,,,,,,,,,,,,,,,,,,,,,,,,29,477.60511321900003,1,5,4,9,2,6,0,8,1,0,0,487.59223543200005,None,1,5,4,9,2,6,0,8,0,488.80505423599993,None,488.80505423599993,None,488.80505423599993,None,488.80505423599993,None,488.80505423599993,None,488.80505423599993,None,488.80505423599993,None,488.80505423599993,None,488.91174814600004,489.41817419099993,488.91174814600004,489.41817419099993,488.91174814600004,489.41817419099993,None,None,left,1.2239288559999295,488.91174814600004,None,None,None,z,0.2937310869999692,490.17784510699994,None,490.4977235649999,None,,,,,,,,,106,23,2022_Sep_20_1409,templeton_exp2A_SD,2020.2.10,74.95432321016702,
,,,,,,,,,,,,,,,,,,,,,,30,0,30,0,,,,,,,,,,,,,,,,,,,,,,,,2.05,0.75,2.05,,,,,,,,,,,,,,,,,,,,,,,,,,,,,,,,,,,30,483.7878684720001,2,8,1,7,4,6,0,5,0,0,5,493.7897793750001,None,2,8,1,7,4,6,0,5,1,496.41554645099995,None,496.41554645099995,None,496.41554645099995,None,496.41554645099995,None,496.41554645099995,None,496.41554645099995,None,496.41554645099995,None,496.41554645099995,None,495.12268803899997,495.62917221099997,495.12268803899997,495.62917221099997,495.12268803899997,495.62917221099997,None,None,left,1.6400131559998954,496.41554645099995,None,None,None,z,0.34745774799989704,498.1081843059999,None,498.481391156,None,,,,,,,,,106,23,2022_Sep_20_1409,templeton_exp2A_SD,2020.2.10,74.95432321016702,
,,,,,,,,,,,,,,,,,,,,,,31,0,31,0,,,,,,,,,,,,,,,,,,,,,,,,2.05,0.75,2.05,,,,,,,,,,,,,,,,,,,,,,,,,,,,,,,,,,,31,489.06872284199994,1,9,2,6,3,8,4,7,0,0,4,499.0679560230001,None,1,9,2,6,3,8,4,7,2,501.69348894199993,None,501.69348894199993,None,501.69348894199993,None,501.69348894199993,None,501.69348894199993,None,501.69348894199993,None,501.69348894199993,None,501.69348894199993,None,500.3873979109999,500.893841244,500.3873979109999,500.893841244,500.3873979109999,500.893841244,None,None,left,1.3141773519998878,501.69348894199993,None,None,None,z,0.3065970659999948,503.05301648,None,503.372884786,None,,,,,,,,,106,23,2022_Sep_20_1409,templeton_exp2A_SD,2020.2.10,74.95432321016702,
,,,,,,,,,,,,,,,,,,,,,,32,0,32,0,,,,,,,,,,,,,,,,,,,,,,,,0.65,0.75,1.25,,,,,,,,,,,,,,,,,,,,,,,,,,,,,,,,,,,32,493.96017794,2,8,0,9,1,7,3,6,1,1,0,503.9592695399999,None,4,8,0,9,1,7,3,6,2,505.185501101,None,505.185501101,None,505.185501101,None,505.185501101,None,505.185501101,None,505.185501101,None,505.185501101,None,505.185501101,None,505.2788154959999,505.7853777160001,505.2788154959999,505.7853777160001,505.2788154959999,505.7853777160001,None,None,down,1.1448083799998585,505.2788154959999,None,None,None,z,0.43063298000015493,506.46504194499994,None,506.91822245599997,None,,,,,,,,,106,23,2022_Sep_20_1409,templeton_exp2A_SD,2020.2.10,74.95432321016702,
,,,,,,,,,,,,,,,,,,,,,,33,0,33,0,,,,,,,,,,,,,,,,,,,,,,,,2.05,0.75,2.05,,,,,,,,,,,,,,,,,,,,,,,,,,,,,,,,,,,33,497.50439794199997,4,9,3,8,0,7,2,6,0,1,5,507.5047266659999,None,4,9,3,8,0,1,2,6,3,510.1170037889999,None,510.1170037889999,None,510.1170037889999,None,510.1170037889999,None,510.1170037889999,None,510.1170037889999,None,510.1170037889999,None,510.1170037889999,None,508.8241037309999,509.33059004300003,508.8241037309999,509.33059004300003,508.8241037309999,509.33059004300003,None,None,down,1.4346635360000164,510.1170037889999,None,None,None,z,0.4670474350000404,511.5965328079999,None,512.0896317439999,None,,,,,,,,,106,23,2022_Sep_20_1409,templeton_exp2A_SD,2020.2.10,74.95432321016702,
,,,,,,,,,,,,,,,,,,,,,,34,0,34,0,,,,,,,,,,,,,,,,,,,,,,,,2.05,0.75,2.05,,,,,,,,,,,,,,,,,,,,,,,,,,,,,,,,,,,34,502.6776496340001,1,8,0,9,4,7,2,6,0,1,3,512.675949745,None,1,8,0,3,4,7,2,6,0,515.3016912759999,None,515.3016912759999,None,515.3016912759999,None,515.3016912759999,None,515.3016912759999,None,515.3016912759999,None,515.3016912759999,None,515.3016912759999,None,513.9954759990001,514.502094274,513.9954759990001,514.502094274,513.9954759990001,514.502094274,None,None,left,2.473964781000177,515.3016912759999,None,None,None,z,0.8748474510000506,517.8208352080001,None,518.7137531799999,None,,,,,,,,,106,23,2022_Sep_20_1409,templeton_exp2A_SD,2020.2.10,74.95432321016702,
,,,,,,,,,,,,,,,,,,,,,,35,0,35,0,,,,,,,,,,,,,,,,,,,,,,,,0.65,0.75,1.25,,,,,,,,,,,,,,,,,,,,,,,,,,,,,,,,,,,35,509.299469458,4,6,1,9,3,5,0,8,1,0,6,519.2867943179999,None,4,6,1,9,3,5,0,8,0,520.4997881429999,None,520.4997881429999,None,520.4997881429999,None,520.4997881429999,None,520.4997881429999,None,520.4997881429999,None,520.4997881429999,None,520.4997881429999,None,520.6062759490001,521.112802396,520.6062759490001,521.112802396,520.6062759490001,521.112802396,None,None,left,1.0093959519999771,520.6062759490001,None,None,None,z,0.4764015839998592,521.6592619589999,None,522.1523890860001,None,,,,,,,,,106,23,2022_Sep_20_1409,templeton_exp2A_SD,2020.2.10,74.95432321016702,
,,,,,,,,,,,,,,,,,,,,,,36,0,36,0,,,,,,,,,,,,,,,,,,,,,,,,0.65,0.75,1.25,,,,,,,,,,,,,,,,,,,,,,,,,,,,,,,,,,,36,512.74013251,0,6,3,7,1,8,2,5,1,0,6,522.7389549899999,None,0,6,3,7,1,8,2,5,0,523.9651829960001,None,523.9651829960001,None,523.9651829960001,None,523.9651829960001,None,523.9651829960001,None,523.9651829960001,None,523.9651829960001,None,523.9651829960001,None,524.0584514509999,524.5648616779999,524.0584514509999,524.5648616779999,524.0584514509999,524.5648616779999,None,None,left,1.1172094099999867,524.0584514509999,None,None,None,z,0.4216368360000615,525.218044815,None,525.6577395310001,None,,,,,,,,,106,23,2022_Sep_20_1409,templeton_exp2A_SD,2020.2.10,74.95432321016702,
,,,,,,,,,,,,,,,,,,,,,,37,0,37,0,,,,,,,,,,,,,,,,,,,,,,,,2.05,0.75,2.05,,,,,,,,,,,,,,,,,,,,,,,,,,,,,,,,,,,37,516.2442414730001,3,6,2,7,4,8,0,5,0,1,3,526.2441548469999,None,3,6,2,1,4,8,0,5,0,528.856613685,None,528.856613685,None,528.856613685,None,528.856613685,None,528.856613685,None,528.856613685,None,528.856613685,None,528.856613685,None,527.563724759,528.070267741,527.563724759,528.070267741,527.563724759,528.070267741,None,None,left,1.6550389179999456,528.856613685,None,None,None,z,0.2769969089999904,530.5626870599999,None,530.855739034,None,,,,,,,,,106,23,2022_Sep_20_1409,templeton_exp2A_SD,2020.2.10,74.95432321016702,
,,,,,,,,,,,,,,,,,,,,,,38,0,38,0,,,,,,,,,,,,,,,,,,,,,,,,0.65,0.75,1.25,,,,,,,,,,,,,,,,,,,,,,,,,,,,,,,,,,,38,521.442456037,4,6,2,7,0,5,3,8,1,1,2,531.4421748770001,None,4,6,1,7,0,5,3,8,0,532.668512747,None,532.668512747,None,532.668512747,None,532.668512747,None,532.668512747,None,532.668512747,None,532.668512747,None,532.668512747,None,532.7616844449999,533.2682980509999,532.7616844449999,533.2682980509999,532.7616844449999,533.2682980509999,None,None,down,1.3338852330000464,532.7616844449999,None,None,None,z,0.35574762800001736,534.1479337650001,None,534.521113239,None,,,,,,,,,106,23,2022_Sep_20_1409,templeton_exp2A_SD,2020.2.10,74.95432321016702,
,,,,,,,,,,,,,,,,,,,,,,39,0,39,0,,,,,,,,,,,,,,,,,,,,,,,,2.05,0.75,2.05,,,,,,,,,,,,,,,,,,,,,,,,,,,,,,,,,,,39,525.1089201260002,0,5,1,6,4,7,3,8,0,1,3,535.107600908,None,0,5,1,2,4,7,3,8,1,537.719931095,None,537.719931095,None,537.719931095,None,537.719931095,None,537.719931095,None,537.719931095,None,537.719931095,None,537.719931095,None,536.4270223430001,536.9336178660001,536.4270223430001,536.9336178660001,536.4270223430001,536.9336178660001,None,None,down,1.271725349999997,537.719931095,None,None,None,z,0.34426375800012465,539.0394180769999,None,539.3991934999999,None,,,,,,,,,106,23,2022_Sep_20_1409,templeton_exp2A_SD,2020.2.10,74.95432321016702,
,,,,,,,,,,,,,,,,,,,,,,40,0,40,0,,,,,,,,,,,,,,,,,,,,,,,,2.05,0.75,2.05,,,,,,,,,,,,,,,,,,,,,,,,,,,,,,,,,,,40,529.9834637400002,2,7,0,8,3,9,4,5,0,1,0,539.972368059,None,1,7,0,8,3,9,4,5,2,542.584762877,None,542.584762877,None,542.584762877,None,542.584762877,None,542.584762877,None,542.584762877,None,542.584762877,None,542.584762877,None,541.2918633449999,541.7983890339999,541.2918633449999,541.7983890339999,541.2918633449999,541.7983890339999,None,None,down,1.2308875050000552,542.584762877,None,None,None,z,0.3434097819999806,543.864222232,None,544.224019579,None,,,,,,,,,106,23,2022_Sep_20_1409,templeton_exp2A_SD,2020.2.10,74.95432321016702,
,,,,,,,,,,,,,,,,,,,,,,41,0,41,0,,,,,,,,,,,,,,,,,,,,,,,,2.05,0.75,2.05,,,,,,,,,,,,,,,,,,,,,,,,,,,,,,,,,,,41,534.811039404,4,8,1,6,2,9,3,7,0,0,7,544.810532084,None,4,8,1,6,2,9,3,7,3,547.4361977369999,None,547.4361977369999,None,547.4361977369999,None,547.4361977369999,None,547.4361977369999,None,547.4361977369999,None,547.4361977369999,None,547.4361977369999,None,546.1300907079999,546.636500545,546.1300907079999,546.636500545,546.1300907079999,546.636500545,None,None,left,1.179489483999987,547.4361977369999,None,None,None,z,0.36122053700000833,548.662423362,None,549.048941887,None,,,,,,,,,106,23,2022_Sep_20_1409,templeton_exp2A_SD,2020.2.10,74.95432321016702,
,,,,,,,,,,,,,,,,,,,,,,42,0,42,0,,,,,,,,,,,,,,,,,,,,,,,,0.65,0.75,1.25,,,,,,,,,,,,,,,,,,,,,,,,,,,,,,,,,,,42,539.6340924149999,1,9,0,5,3,8,2,6,1,1,2,549.62204997,None,1,9,4,5,3,8,2,6,3,550.834896375,None,550.834896375,None,550.834896375,None,550.834896375,None,550.834896375,None,550.834896375,None,550.834896375,None,550.834896375,None,550.9414987089999,551.4479435169999,550.9414987089999,551.4479435169999,550.9414987089999,551.4479435169999,None,None,left,1.8660725990000628,550.9414987089999,None,None,None,z,0.279989409999871,552.8475834650001,None,553.154096455,None,,,,,,,,,106,23,2022_Sep_20_1409,templeton_exp2A_SD,2020.2.10,74.95432321016702,
,,,,,,,,,,,,,,,,,,,,,,43,0,43,0,,,,,,,,,,,,,,,,,,,,,,,,2.05,0.75,2.05,,,,,,,,,,,,,,,,,,,,,,,,,,,,,,,,,,,43,543.7415124230001,1,7,3,6,4,9,0,5,0,0,3,553.74038458,None,1,7,3,6,4,9,0,5,0,556.366164535,None,556.366164535,None,556.366164535,None,556.366164535,None,556.366164535,None,556.366164535,None,556.366164535,None,556.366164535,None,555.060038288,555.5664418659999,555.060038288,555.5664418659999,555.060038288,555.5664418659999,None,None,down,1.425479666000001,556.366164535,None,None,None,z,0.319343181000022,557.8323194110001,None,558.165468444,None,,,,,,,,,106,23,2022_Sep_20_1409,templeton_exp2A_SD,2020.2.10,74.95432321016702,
,,,,,,,,,,,,,,,,,,,,,,44,0,44,0,,,,,,,,,,,,,,,,,,,,,,,,0.65,0.75,1.25,,,,,,,,,,,,,,,,,,,,,,,,,,,,,,,,,,,44,548.750968719,3,5,4,9,0,6,1,8,1,0,7,558.738585217,None,3,5,4,9,0,6,1,8,0,559.951440375,None,559.951440375,None,559.951440375,None,559.951440375,None,559.951440375,None,559.951440375,None,559.951440375,None,559.951440375,None,560.0580135949999,560.5644970999999,560.0580135949999,560.5644970999999,560.0580135949999,560.5644970999999,None,None,left,1.5576454500001091,560.0580135949999,None,None,None,z,0.3581880369999908,561.657476824,None,562.030675815,None,,,,,,,,,106,23,2022_Sep_20_1409,templeton_exp2A_SD,2020.2.10,74.95432321016702,
,,,,,,,,,,,,,,,,,,,,,,45,0,45,0,,,,,,,,,,,,,,,,,,,,,,,,2.05,0.75,2.05,,,,,,,,,,,,,,,,,,,,,,,,,,,,,,,,,,,45,554.2238696080001,3,8,4,5,2,9,0,7,0,1,4,564.2165559299999,None,3,8,4,5,1,9,0,7,0,566.828810856,None,566.828810856,None,566.828810856,None,566.828810856,None,566.828810856,None,566.828810856,None,566.828810856,None,566.828810856,None,565.5359919059999,566.0423944409999,565.5359919059999,566.0423944409999,565.5359919059999,566.0423944409999,None,None,left,1.9948543040000004,566.828810856,None,None,None,z,0.29951449800000773,568.8681657049999,None,569.187950109,None,,,,,,,,,106,23,2022_Sep_20_1409,templeton_exp2A_SD,2020.2.10,74.95432321016702,
,,,,,,,,,,,,,,,,,,,,,,46,0,46,0,,,,,,,,,,,,,,,,,,,,,,,,0.65,0.75,1.25,,,,,,,,,,,,,,,,,,,,,,,,,,,,,,,,,,,46,559.775413094,1,8,2,9,0,6,3,7,1,1,1,569.7744039520001,None,1,4,2,9,0,6,3,7,0,571.0006519860001,None,571.0006519860001,None,571.0006519860001,None,571.0006519860001,None,571.0006519860001,None,571.0006519860001,None,571.0006519860001,None,571.0006519860001,None,571.0939428879999,571.600370789,571.0939428879999,571.600370789,571.0939428879999,571.600370789,None,None,left,1.2257117120000203,571.0939428879999,None,None,None,z,0.28760318500008,572.360079861,None,572.6666016869999,None,,,,,,,,,106,23,2022_Sep_20_1409,templeton_exp2A_SD,2020.2.10,74.95432321016702,
,,,,,,,,,,,,,,,,,,,,,,47,0,47,0,,,,,,,,,,,,,,,,,,,,,,,,0.65,0.75,1.25,,,,,,,,,,,,,,,,,,,,,,,,,,,,,,,,,,,47,563.253170035,4,6,0,9,3,7,2,8,1,0,3,573.2530764119999,None,4,6,0,9,3,7,2,8,0,574.4793433780001,None,574.4793433780001,None,574.4793433780001,None,574.4793433780001,None,574.4793433780001,None,574.4793433780001,None,574.4793433780001,None,574.4793433780001,None,574.572670965,575.0790388129999,574.572670965,575.0790388129999,574.572670965,575.0790388129999,None,None,left,2.73900368600016,574.572670965,None,None,None,z,0.2894934789999297,577.3582093150001,None,577.6647012870001,None,,,,,,,,,106,23,2022_Sep_20_1409,templeton_exp2A_SD,2020.2.10,74.95432321016702,
,,,,,,,,,,,,,,,,,,,,,,48,0,48,0,,,,,,,,,,,,,,,,,,,,,,,,0.65,0.75,1.25,,,,,,,,,,,,,,,,,,,,,,,,,,,,,,,,,,,48,568.250576765,3,9,2,5,0,8,1,6,1,0,4,578.237823619,None,3,9,2,5,0,8,1,6,0,579.4507073929999,None,579.4507073929999,None,579.4507073929999,None,579.4507073929999,None,579.4507073929999,None,579.4507073929999,None,579.4507073929999,None,579.4507073929999,None,579.557375572,580.063889385,579.557375572,580.063889385,579.557375572,580.063889385,None,None,left,1.6022877990001234,579.557375572,None,None,None,z,0.3015785880002113,581.210099833,None,581.5298898389999,None,,,,,,,,,106,23,2022_Sep_20_1409,templeton_exp2A_SD,2020.2.10,74.95432321016702,
,,,,,,,,,,,,,,,,,,,,,,49,0,49,0,,,,,,,,,,,,,,,,,,,,,,,,2.05,0.75,2.05,,,,,,,,,,,,,,,,,,,,,,,,,,,,,,,,,,,49,572.116998582,3,8,0,9,1,6,2,7,0,0,5,582.1164638509999,None,3,8,0,9,1,6,2,7,1,584.74203119,None,584.74203119,None,584.74203119,None,584.74203119,None,584.74203119,None,584.74203119,None,584.74203119,None,584.74203119,None,583.4358752539999,583.9423187049999,583.4358752539999,583.9423187049999,583.4358752539999,583.9423187049999,None,None,left,1.5296187199999167,584.74203119,None,None,None,z,0.3409519489998729,586.314729724,None,586.6746176700001,None,,,,,,,,,106,23,2022_Sep_20_1409,templeton_exp2A_SD,2020.2.10,74.95432321016702,
,,,,,,,,,,,,,,,,,,,,,,50,0,50,0,,,,,,,,,,,,,,,,,,,,,,,,2.05,0.75,2.05,,,,,,,,,,,,,,,,,,,,,,,,,,,,,,,,,,,50,577.2624651660001,4,9,1,6,3,7,0,8,0,0,3,587.2611871080001,None,4,9,1,6,3,7,0,8,2,589.886766844,None,589.886766844,None,589.886766844,None,589.886766844,None,589.886766844,None,589.886766844,None,589.886766844,None,589.886766844,None,588.5938853939999,589.1003364169999,588.5938853939999,589.1003364169999,588.5938853939999,589.1003364169999,None,None,left,2.6968875610000396,589.886766844,None,None,None,z,0.17524564500013184,592.632382088,None,592.832318345,None,,,,,,,,,106,23,2022_Sep_20_1409,templeton_exp2A_SD,2020.2.10,74.95432321016702,
,,,,,,,,,,,,,,,,,,,,,,51,0,51,0,,,,,,,,,,,,,,,,,,,,,,,,0.65,0.75,1.25,,,,,,,,,,,,,,,,,,,,,,,,,,,,,,,,,,,51,583.417899263,1,8,0,7,4,5,2,9,1,1,4,593.4054722189999,None,1,8,0,7,3,5,2,9,2,594.6183831139999,None,594.6183831139999,None,594.6183831139999,None,594.6183831139999,None,594.6183831139999,None,594.6183831139999,None,594.6183831139999,None,594.6183831139999,None,594.7249341429999,595.231424969,594.7249341429999,595.231424969,594.7249341429999,595.231424969,None,None,down,1.306635443999994,594.7249341429999,None,None,None,z,0.19522987400000602,596.084450842,None,596.297703086,None,,,,,,,,,106,23,2022_Sep_20_1409,templeton_exp2A_SD,2020.2.10,74.95432321016702,
,,,,,,,,,,,,,,,,,,,,,,52,0,52,0,,,,,,,,,,,,,,,,,,,,,,,,0.65,0.75,1.25,,,,,,,,,,,,,,,,,,,,,,,,,,,,,,,,,,,52,586.8839250800002,0,9,2,8,3,7,4,6,1,1,6,596.884139282,None,0,9,2,8,3,7,1,6,2,598.110394023,None,598.110394023,None,598.110394023,None,598.110394023,None,598.110394023,None,598.110394023,None,598.110394023,None,598.110394023,None,598.2035953120001,598.710014237,598.2035953120001,598.710014237,598.2035953120001,598.710014237,None,None,left,1.5400810910000473,598.2035953120001,None,None,None,z,0.2659317390000524,599.789705851,None,600.069524647,None,,,,,,,,,106,23,2022_Sep_20_1409,templeton_exp2A_SD,2020.2.10,74.95432321016702,
,,,,,,,,,,,,,,,,,,,,,,53,0,53,0,,,,,,,,,,,,,,,,,,,,,,,,0.65,0.75,1.25,,,,,,,,,,,,,,,,,,,,,,,,,,,,,,,,,,,53,590.656667448,2,8,3,9,4,6,1,7,1,0,6,600.656035446,None,2,8,3,9,4,6,1,7,2,601.882220147,None,601.882220147,None,601.882220147,None,601.882220147,None,601.882220147,None,601.882220147,None,601.882220147,None,601.882220147,None,601.975512855,602.4819300280001,601.975512855,602.4819300280001,601.975512855,602.4819300280001,None,None,left,0.9600546880001275,601.975512855,None,None,None,z,0.33930268499989324,602.988395074,None,603.3483235169999,None,,,,,,,,,106,23,2022_Sep_20_1409,templeton_exp2A_SD,2020.2.10,74.95432321016702,
,,,,,,,,,,,,,,,,,,,,,,54,0,54,0,,,,,,,,,,,,,,,,,,,,,,,,2.05,0.75,2.05,,,,,,,,,,,,,,,,,,,,,,,,,,,,,,,,,,,54,593.936300675,1,8,4,9,2,6,0,7,0,0,3,603.934772672,None,1,8,4,9,2,6,0,7,3,606.5604384609999,None,606.5604384609999,None,606.5604384609999,None,606.5604384609999,None,606.5604384609999,None,606.5604384609999,None,606.5604384609999,None,606.5604384609999,None,605.25437164,605.7607238410001,605.25437164,605.7607238410001,605.25437164,605.7607238410001,None,None,left,0.8312123480000082,606.5604384609999,None,None,None,z,0.31159579099994517,607.440072204,None,607.773276437,None,,,,,,,,,106,23,2022_Sep_20_1409,templeton_exp2A_SD,2020.2.10,74.95432321016702,
,,,,,,,,,,,,,,,,,,,,,,55,0,55,0,,,,,,,,,,,,,,,,,,,,,,,,2.05,0.75,2.05,,,,,,,,,,,,,,,,,,,,,,,,,,,,,,,,,,,55,598.358803457,0,5,3,9,2,6,1,8,0,1,5,608.346389516,None,0,5,3,9,2,4,1,8,4,610.9587999180001,None,610.9587999180001,None,610.9587999180001,None,610.9587999180001,None,610.9587999180001,None,610.9587999180001,None,610.9587999180001,None,610.9587999180001,None,609.652616866,610.1590544430001,609.652616866,610.1590544430001,609.652616866,610.1590544430001,None,None,down,1.016879463000123,610.9587999180001,None,None,None,z,0.29461052300007395,612.0250366729999,None,612.3449795250001,None,,,,,,,,,106,23,2022_Sep_20_1409,templeton_exp2A_SD,2020.2.10,74.95432321016702,
,,,,,,,,,,,,,,,,,,,,,,56,0,56,0,,,,,,,,,,,,,,,,,,,,,,,,0.65,0.75,1.25,,,,,,,,,,,,,,,,,,,,,,,,,,,,,,,,,,,56,602.932043499,4,7,0,9,1,6,2,5,1,1,4,612.931349775,None,4,7,0,9,3,6,2,5,4,614.1442257880001,None,614.1442257880001,None,614.1442257880001,None,614.1442257880001,None,614.1442257880001,None,614.1442257880001,None,614.1442257880001,None,614.1442257880001,None,614.250868634,614.7573832620001,614.250868634,614.7573832620001,614.250868634,614.7573832620001,None,None,left,1.1808260919999611,614.250868634,None,None,None,z,0.3144870420001098,615.4771456020001,None,615.823684443,None,,,,,,,,,106,23,2022_Sep_20_1409,templeton_exp2A_SD,2020.2.10,74.95432321016702,
,,,,,,,,,,,,,,,,,,,,,,57,0,57,0,,,,,,,,,,,,,,,,,,,,,,,,0.65,0.75,1.25,,,,,,,,,,,,,,,,,,,,,,,,,,,,,,,,,,,57,606.3950250990001,3,8,2,6,0,5,4,9,1,1,3,616.3833662919999,None,3,8,2,1,0,5,4,9,4,617.596251702,None,617.596251702,None,617.596251702,None,617.596251702,None,617.596251702,None,617.596251702,None,617.596251702,None,617.596251702,None,617.6895650710001,618.196036869,617.6895650710001,618.196036869,617.6895650710001,618.196036869,None,None,left,1.5581108119999953,617.6895650710001,None,None,None,z,0.342708329000061,619.288975701,None,619.6488136769999,None,,,,,,,,,106,23,2022_Sep_20_1409,templeton_exp2A_SD,2020.2.10,74.95432321016702,
,,,,,,,,,,,,,,,,,,,,,,58,0,58,0,,,,,,,,,,,,,,,,,,,,,,,,2.05,0.75,2.05,,,,,,,,,,,,,,,,,,,,,,,,,,,,,,,,,,,58,610.2346465200001,2,8,1,6,4,5,0,9,0,0,0,620.22201615,None,2,8,1,6,4,5,0,9,0,622.8342785279999,None,622.8342785279999,None,622.8342785279999,None,622.8342785279999,None,622.8342785279999,None,622.8342785279999,None,622.8342785279999,None,622.8342785279999,None,621.541487529,622.0479921859999,621.541487529,622.0479921859999,621.541487529,622.0479921859999,None,None,down,0.981289562000029,622.8342785279999,None,None,None,z,0.3470415580000008,623.860534918,None,624.2337532859999,None,,,,,,,,,106,23,2022_Sep_20_1409,templeton_exp2A_SD,2020.2.10,74.95432321016702,
,,,,,,,,,,,,,,,,,,,,,,59,0,59,0,,,,,,,,,,,,,,,,,,,,,,,,2.05,0.75,2.05,,,,,,,,,,,,,,,,,,,,,,,,,,,,,,,,,,,59,614.8194888410001,4,8,1,9,3,5,0,6,0,0,0,624.8069260740001,None,4,8,1,9,3,5,0,6,1,627.4191292469998,None,627.4191292469998,None,627.4191292469998,None,627.4191292469998,None,627.4191292469998,None,627.4191292469998,None,627.4191292469998,None,627.4191292469998,None,626.126333421,626.6328543669999,626.126333421,626.6328543669999,626.126333421,626.6328543669999,None,None,left,0.7805384900002537,627.4191292469998,None,None,None,z,0.27405128000009427,628.2456305459998,None,628.5387429330001,None,,,,,,,,,106,23,2022_Sep_20_1409,templeton_exp2A_SD,2020.2.10,74.95432321016702,
,,,,,,,,,,,,,,,,,,,,,,60,0,60,0,,,,,,,,,,,,,,,,,,,,,,,,2.05,0.75,2.05,,,,,,,,,,,,,,,,,,,,,,,,,,,,,,,,,,,60,620.561726696,4,9,2,7,3,8,0,6,0,1,5,630.5513357950001,None,4,9,2,7,3,1,0,6,2,633.177027337,None,633.177027337,None,633.177027337,None,633.177027337,None,633.177027337,None,633.177027337,None,633.177027337,None,633.177027337,None,631.8709399070001,632.377285545,631.8709399070001,632.377285545,631.8709399070001,632.377285545,None,None,down,1.1826266429998213,633.177027337,None,None,None,z,0.29242407099991397,634.4032380880001,None,634.7098106659998,None,,,,,,,,,106,23,2022_Sep_20_1409,templeton_exp2A_SD,2020.2.10,74.95432321016702,
,,,,,,,,,,,,,,,,,,,,,,61,0,61,0,,,,,,,,,,,,,,,,,,,,,,,,0.65,0.75,1.25,,,,,,,,,,,,,,,,,,,,,,,,,,,,,,,,,,,61,625.297048917,2,7,0,6,3,5,1,8,1,1,2,635.2962824809999,None,2,7,4,6,3,5,1,8,2,636.5224552460002,None,636.5224552460002,None,636.5224552460002,None,636.5224552460002,None,636.5224552460002,None,636.5224552460002,None,636.5224552460002,None,636.5224552460002,None,636.6157598960001,637.122210795,636.6157598960001,637.122210795,636.6157598960001,637.122210795,None,None,down,0.9838965139997526,636.6157598960001,None,None,None,z,0.3255811630001517,637.642090047,None,637.9885033130001,None,,,,,,,,,106,23,2022_Sep_20_1409,templeton_exp2A_SD,2020.2.10,74.95432321016702,
,,,,,,,,,,,,,,,,,,,,,,62,0,62,0,,,,,,,,,,,,,,,,,,,,,,,,0.65,0.75,1.25,,,,,,,,,,,,,,,,,,,,,,,,,,,,,,,,,,,62,628.5747292190001,2,9,4,5,0,6,3,7,1,0,3,638.5750628960002,None,2,9,4,5,0,6,3,7,2,639.787804325,None,639.787804325,None,639.787804325,None,639.787804325,None,639.787804325,None,639.787804325,None,639.787804325,None,639.787804325,None,639.8944129949998,640.400958428,639.8944129949998,640.400958428,639.8944129949998,640.400958428,None,None,down,3.5212227209999583,639.8944129949998,None,None,None,z,0.045192902000053436,643.4664741640001,None,643.5330678530001,None,,,,,,,,,106,23,2022_Sep_20_1409,templeton_exp2A_SD,2020.2.10,74.95432321016702,
,,,,,,,,,,,,,,,,,,,,,,63,0,63,0,,,,,,,,,,,,,,,,,,,,,,,,0.65,0.75,1.25,,,,,,,,,,,,,,,,,,,,,,,,,,,,,,,,,,,63,634.1205134869999,0,5,4,6,2,7,1,9,1,0,2,644.1196036449999,None,0,5,4,6,2,7,1,9,2,645.3457406619998,None,645.3457406619998,None,645.3457406619998,None,645.3457406619998,None,645.3457406619998,None,645.3457406619998,None,645.3457406619998,None,645.3457406619998,None,645.439059479,645.945572971,645.439059479,645.945572971,645.439059479,645.945572971,None,None,left,1.2005114500002492,645.439059479,None,None,None,z,0.2677026390001629,646.6919527339999,None,646.9850951599999,None,,,,,,,,,106,23,2022_Sep_20_1409,templeton_exp2A_SD,2020.2.10,74.95432321016702,
,,,,,,,,,,,,,,,,,,,,,,64,0,64,0,,,,,,,,,,,,,,,,,,,,,,,,2.05,0.75,2.05,,,,,,,,,,,,,,,,,,,,,,,,,,,,,,,,,,,64,637.5708080249999,4,9,1,8,0,6,2,5,0,1,7,647.5582085019998,None,4,9,1,8,0,6,2,3,3,650.1705814869999,None,650.1705814869999,None,650.1705814869999,None,650.1705814869999,None,650.1705814869999,None,650.1705814869999,None,650.1705814869999,None,650.1705814869999,None,648.8777551669998,649.3841906250002,648.8777551669998,649.3841906250002,648.8777551669998,649.3841906250002,None,None,down,0.8850763400000687,650.1705814869999,None,None,None,z,0.29603819600015413,651.1036118320001,None,651.4234755300001,None,,,,,,,,,106,23,2022_Sep_20_1409,templeton_exp2A_SD,2020.2.10,74.95432321016702,
,,,,,,,,,,,,,,,,,,,,,,65,0,65,0,,,,,,,,,,,,,,,,,,,,,,,,0.65,0.75,1.25,,,,,,,,,,,,,,,,,,,,,,,,,,,,,,,,,,,65,642.0098956869999,1,6,3,5,4,7,2,9,1,0,4,652.0098910059999,None,1,6,3,5,4,7,2,9,3,653.2361627299999,None,653.2361627299999,None,653.2361627299999,None,653.2361627299999,None,653.2361627299999,None,653.2361627299999,None,653.2361627299999,None,653.2361627299999,None,653.3293826779998,653.8358513350001,653.3293826779998,653.8358513350001,653.3293826779998,653.8358513350001,None,None,left,1.686291902999983,653.3293826779998,None,None,None,z,0.3136038779998671,655.0620776220001,None,655.3953089409999,None,,,,,,,,,106,23,2022_Sep_20_1409,templeton_exp2A_SD,2020.2.10,74.95432321016702,
,,,,,,,,,,,,,,,,,,,,,,66,0,66,0,,,,,,,,,,,,,,,,,,,,,,,,0.65,0.75,1.25,,,,,,,,,,,,,,,,,,,,,,,,,,,,,,,,,,,66,645.9821211639999,3,6,2,8,4,7,1,5,1,0,6,655.981789317,None,3,6,2,8,4,7,1,5,3,657.2078787940002,None,657.2078787940002,None,657.2078787940002,None,657.2078787940002,None,657.2078787940002,None,657.2078787940002,None,657.2078787940002,None,657.2078787940002,None,657.301292077,657.807724818,657.301292077,657.807724818,657.301292077,657.807724818,None,None,left,0.9223734380002497,657.301292077,None,None,None,z,0.3334158570000909,658.274163072,None,658.634022336,None,,,,,,,,,106,23,2022_Sep_20_1409,templeton_exp2A_SD,2020.2.10,74.95432321016702,
,,,,,,,,,,,,,,,,,,,,,,67,0,67,0,,,,,,,,,,,,,,,,,,,,,,,,2.05,0.75,2.05,,,,,,,,,,,,,,,,,,,,,,,,,,,,,,,,,,,67,649.2214290690001,1,6,4,5,0,7,2,9,0,1,7,659.2205816500002,None,1,6,4,5,0,7,2,3,4,661.8462372920001,None,661.8462372920001,None,661.8462372920001,None,661.8462372920001,None,661.8462372920001,None,661.8462372920001,None,661.8462372920001,None,661.8462372920001,None,660.539943513,661.0465718480002,660.539943513,661.0465718480002,660.539943513,661.0465718480002,None,None,down,0.7854988690000937,661.8462372920001,None,None,None,z,0.3112298850001025,662.6724379280001,None,663.005764796,None,,,,,,,,,106,23,2022_Sep_20_1409,templeton_exp2A_SD,2020.2.10,74.95432321016702,
,,,,,,,,,,,,,,,,,,,,,,68,0,68,0,,,,,,,,,,,,,,,,,,,,,,,,0.65,0.75,1.25,,,,,,,,,,,,,,,,,,,,,,,,,,,,,,,,,,,68,653.5928201449999,2,9,1,8,3,7,4,6,1,0,6,663.5922268390002,None,2,9,1,8,3,7,4,6,4,664.818363357,None,664.818363357,None,664.818363357,None,664.818363357,None,664.818363357,None,664.818363357,None,664.818363357,None,664.818363357,None,664.911699561,665.4181403649998,664.911699561,665.4181403649998,664.911699561,665.4181403649998,None,None,left,1.0879758209998727,664.911699561,None,None,None,z,0.3550941319999765,666.0445843159998,None,666.41777789,None,,,,,,,,,106,23,2022_Sep_20_1409,templeton_exp2A_SD,2020.2.10,74.95432321016702,
,,,,,,,,,,,,,,,,,,,,,,69,0,69,0,,,,,,,,,,,,,,,,,,,,,,,,2.05,0.75,2.05,,,,,,,,,,,,,,,,,,,,,,,,,,,,,,,,,,,69,657.0043386529999,0,7,2,6,4,9,3,8,0,1,6,667.0043099769998,None,0,7,2,6,4,9,1,8,5,669.6299606730001,None,669.6299606730001,None,669.6299606730001,None,669.6299606730001,None,669.6299606730001,None,669.6299606730001,None,669.6299606730001,None,669.6299606730001,None,668.3370197279999,668.8435224839998,668.3370197279999,668.8435224839998,668.3370197279999,668.8435224839998,None,None,down,0.7776919289999569,669.6299606730001,None,None,None,z,0.3513732289998188,670.456293725,None,670.8293995639999,None,,,,,,,,,106,23,2022_Sep_20_1409,templeton_exp2A_SD,2020.2.10,74.95432321016702,
,,,,,,,,,,,,,,,,,,,,,,70,0,70,0,,,,,,,,,,,,,,,,,,,,,,,,0.65,0.75,1.25,,,,,,,,,,,,,,,,,,,,,,,,,,,,,,,,,,,70,661.414973439,0,9,2,8,4,6,1,5,1,1,7,671.4025747059998,None,0,9,2,8,4,6,1,3,5,672.6154957480001,None,672.6154957480001,None,672.6154957480001,None,672.6154957480001,None,672.6154957480001,None,672.6154957480001,None,672.6154957480001,None,672.6154957480001,None,672.7220239760002,673.2284583120002,672.7220239760002,673.2284583120002,672.7220239760002,673.2284583120002,None,None,down,1.8616471509999428,672.7220239760002,None,None,None,z,0.33969544000001406,674.6279860550001,None,674.9878475009998,None,,,,,,,,,106,23,2022_Sep_20_1409,templeton_exp2A_SD,2020.2.10,74.95432321016702,
,,,,,,,,,,,,,,,,,,,,,,71,0,71,0,,,,,,,,,,,,,,,,,,,,,,,,2.05,0.75,2.05,,,,,,,,,,,,,,,,,,,,,,,,,,,,,,,,,,,71,665.5718473069999,0,8,3,9,2,7,4,5,0,1,6,675.5609988230001,None,0,8,3,9,2,7,1,5,0,678.173299883,None,678.173299883,None,678.173299883,None,678.173299883,None,678.173299883,None,678.173299883,None,678.173299883,None,678.173299883,None,676.8804986009998,677.3869261080001,676.8804986009998,677.3869261080001,676.8804986009998,677.3869261080001,None,None,left,1.1303508270002567,678.173299883,None,None,None,z,0.5094994249998308,679.3461690239999,None,679.879289405,None,,,,,,,,,106,23,2022_Sep_20_1409,templeton_exp2A_SD,2020.2.10,74.95432321016702,
,,,,,,,,,,,,,,,,,,,,,,72,0,72,0,,,,,,,,,,,,,,,,,,,,,,,,0.65,0.75,1.25,,,,,,,,,,,,,,,,,,,,,,,,,,,,,,,,,,,72,670.4649300940002,4,5,0,8,1,9,3,7,1,1,3,680.4524659810002,None,4,5,0,2,1,9,3,7,0,681.6653050920002,None,681.6653050920002,None,681.6653050920002,None,681.6653050920002,None,681.6653050920002,None,681.6653050920002,None,681.6653050920002,None,681.6653050920002,None,681.7718989990001,682.2784216009998,681.7718989990001,682.2784216009998,681.7718989990001,682.2784216009998,None,None,left,1.539776883000286,681.7718989990001,None,None,None,z,0.2976272159999098,683.358057441,None,683.6779560870002,None,,,,,,,,,106,23,2022_Sep_20_1409,templeton_exp2A_SD,2020.2.10,74.95432321016702,
,,,,,,,,,,,,,,,,,,,,,,73,0,73,0,,,,,,,,,,,,,,,,,,,,,,,,0.65,0.75,1.25,,,,,,,,,,,,,,,,,,,,,,,,,,,,,,,,,,,73,674.2651072169999,1,6,4,5,0,8,3,7,1,1,5,684.2643301619999,None,1,6,4,5,0,2,3,7,0,685.4905127240002,None,685.4905127240002,None,685.4905127240002,None,685.4905127240002,None,685.4905127240002,None,685.4905127240002,None,685.4905127240002,None,685.4905127240002,None,685.5838324509998,686.0903340349998,685.5838324509998,686.0903340349998,685.5838324509998,686.0903340349998,None,None,left,3.839732384999934,685.5838324509998,None,None,None,z,0.15603272599992124,689.4756519629998,None,689.6489384580002,None,,,,,,,,,106,23,2022_Sep_20_1409,templeton_exp2A_SD,2020.2.10,74.95432321016702,
,,,,,,,,,,,,,,,,,,,,,,74,0,74,0,,,,,,,,,,,,,,,,,,,,,,,,0.65,0.75,1.25,,,,,,,,,,,,,,,,,,,,,,,,,,,,,,,,,,,74,680.2359014159999,1,9,2,7,3,6,4,8,1,1,7,690.2354771110001,None,1,9,2,7,3,6,4,0,0,691.46172852,None,691.46172852,None,691.46172852,None,691.46172852,None,691.46172852,None,691.46172852,None,691.46172852,None,691.46172852,None,691.5548587000001,692.0614562789999,691.5548587000001,692.0614562789999,691.5548587000001,692.0614562789999,None,None,left,0.9408156619997499,691.5548587000001,None,None,None,z,0.1624057230001199,692.5412611270001,None,692.727800121,None,,,,,,,,,106,23,2022_Sep_20_1409,templeton_exp2A_SD,2020.2.10,74.95432321016702,
,,,,,,,,,,,,,,,,,,,,,,75,0,75,0,,,,,,,,,,,,,,,,,,,,,,,,2.05,0.75,2.05,,,,,,,,,,,,,,,,,,,,,,,,,,,,,,,,,,,75,684.1617363749999,4,5,3,9,0,7,2,8,0,1,5,694.1539590559998,None,4,5,3,9,0,1,2,8,1,696.766324426,None,696.766324426,None,696.766324426,None,696.766324426,None,696.766324426,None,696.766324426,None,696.766324426,None,696.766324426,None,695.4601723600001,695.966569084,695.4601723600001,695.966569084,695.4601723600001,695.966569084,None,None,down,0.9373283660002016,696.766324426,None,None,None,z,0.31902767500014306,697.7526227249998,None,698.0857459209999,None,,,,,,,,,106,23,2022_Sep_20_1409,templeton_exp2A_SD,2020.2.10,74.95432321016702,
,,,,,,,,,,,,,,,,,,,,,,76,0,76,0,,,,,,,,,,,,,,,,,,,,,,,,2.05,0.75,2.05,,,,,,,,,,,,,,,,,,,,,,,,,,,,,,,,,,,76,688.6731876360002,3,6,1,9,2,5,0,7,0,1,7,698.672264353,None,3,6,1,9,2,5,0,4,2,701.284571598,None,701.284571598,None,701.284571598,None,701.284571598,None,701.284571598,None,701.284571598,None,701.284571598,None,701.284571598,None,699.9917333259998,700.498263966,699.9917333259998,700.498263966,699.9917333259998,700.498263966,None,None,down,0.843103634000272,701.284571598,None,None,None,z,0.31014200100025846,702.177526576,None,702.5108062779998,None,,,,,,,,,106,23,2022_Sep_20_1409,templeton_exp2A_SD,2020.2.10,74.95432321016702,
,,,,,,,,,,,,,,,,,,,,,,77,0,77,0,,,,,,,,,,,,,,,,,,,,,,,,2.05,0.75,2.05,,,,,,,,,,,,,,,,,,,,,,,,,,,,,,,,,,,77,693.0952471920002,4,8,0,9,3,6,2,5,0,1,0,703.0838905049998,None,1,8,0,9,3,6,2,5,3,705.696234412,None,705.696234412,None,705.696234412,None,705.696234412,None,705.696234412,None,705.696234412,None,705.696234412,None,705.696234412,None,704.4032993789999,704.9098333869999,704.4032993789999,704.9098333869999,704.4032993789999,704.9098333869999,None,None,down,0.6634181160002299,705.696234412,None,None,None,z,0.3171045800004322,706.4025779239998,None,706.7357967609998,None,,,,,,,,,106,23,2022_Sep_20_1409,templeton_exp2A_SD,2020.2.10,74.95432321016702,
,,,,,,,,,,,,,,,,,,,,,,78,0,78,0,,,,,,,,,,,,,,,,,,,,,,,,2.05,0.75,2.05,,,,,,,,,,,,,,,,,,,,,,,,,,,,,,,,,,,78,697.3216371810001,4,5,0,8,3,7,2,6,0,1,2,707.308949691,None,4,5,1,8,3,7,2,6,4,709.9346872540002,None,709.9346872540002,None,709.9346872540002,None,709.9346872540002,None,709.9346872540002,None,709.9346872540002,None,709.9346872540002,None,709.9346872540002,None,708.6284574089998,709.1349217559998,708.6284574089998,709.1349217559998,708.6284574089998,709.1349217559998,None,None,down,0.896965098000237,709.9346872540002,None,None,None,z,0.29477544400015177,710.8808766340001,None,711.2008352249998,None,,,,,,,,,106,23,2022_Sep_20_1409,templeton_exp2A_SD,2020.2.10,74.95432321016702,
,,,,,,,,,,,,,,,,,,,,,,79,0,79,0,,,,,,,,,,,,,,,,,,,,,,,,2.05,0.75,2.05,,,,,,,,,,,,,,,,,,,,,,,,,,,,,,,,,,,79,701.7872286489999,2,5,1,9,4,6,3,7,0,0,2,711.787195058,None,2,5,1,9,4,6,3,7,5,714.4129737320002,None,714.4129737320002,None,714.4129737320002,None,714.4129737320002,None,714.4129737320002,None,714.4129737320002,None,714.4129737320002,None,714.4129737320002,None,713.1067234549998,713.6133410979999,713.1067234549998,713.6133410979999,713.1067234549998,713.6133410979999,None,None,left,0.8507167960001425,714.4129737320002,None,None,None,z,0.3577806819998841,715.305904604,None,715.679073171,None,,,,,,,,,106,23,2022_Sep_20_1409,templeton_exp2A_SD,2020.2.10,74.95432321016702,
,,,,,,,,,,,,,,,,,,,,,,80,0,80,0,,,,,,,,,,,,,,,,,,,,,,,,0.65,0.75,1.25,,,,,,,,,,,,,,,,,,,,,,,,,,,,,,,,,,,80,706.2651419659999,4,9,3,7,1,5,2,6,1,1,7,716.265481353,None,4,9,3,7,1,5,2,0,5,717.4784131919998,None,717.4784131919998,None,717.4784131919998,None,717.4784131919998,None,717.4784131919998,None,717.4784131919998,None,717.4784131919998,None,717.4784131919998,None,717.5851360260001,718.091635946,717.5851360260001,718.091635946,717.5851360260001,718.091635946,None,None,left,1.414537732000099,717.5851360260001,None,None,None,z,0.25241795000010825,719.0511722489998,None,719.3177468010001,None,,,,,,,,,106,23,2022_Sep_20_1409,templeton_exp2A_SD,2020.2.10,74.95432321016702,
,,,,,,,,,,,,,,,,,,,,,,81,0,81,0,,,,,,,,,,,,,,,,,,,,,,,,2.05,0.75,2.05,,,,,,,,,,,,,,,,,,,,,,,,,,,,,,,,,,,81,709.9031653300001,0,7,2,9,4,5,1,8,0,1,3,719.8908124000002,None,0,7,2,3,4,5,1,8,6,722.5031847110001,None,722.5031847110001,None,722.5031847110001,None,722.5031847110001,None,722.5031847110001,None,722.5031847110001,None,722.5031847110001,None,722.5031847110001,None,721.2103370699999,721.7168900959998,721.2103370699999,721.7168900959998,721.2103370699999,721.7168900959998,None,None,down,2.056469208999715,722.5031847110001,None,None,None,z,0.17457046900017303,724.6090722269998,None,724.8089378799998,None,,,,,,,,,106,23,2022_Sep_20_1409,templeton_exp2A_SD,2020.2.10,74.95432321016702,
,,,,,,,,,,,,,,,,,,,,,,82,0,82,0,,,,,,,,,,,,,,,,,,,,,,,,2.05,0.75,2.05,,,,,,,,,,,,,,,,,,,,,,,,,,,,,,,,,,,82,715.394233539,0,9,4,5,2,8,1,7,0,1,1,725.3821171319998,None,0,3,4,5,2,8,1,7,0,727.994398775,None,727.994398775,None,727.994398775,None,727.994398775,None,727.994398775,None,727.994398775,None,727.994398775,None,727.994398775,None,726.701599454,727.2080893599998,726.701599454,727.2080893599998,726.701599454,727.2080893599998,None,None,left,1.3172538399999212,727.994398775,None,None,None,z,0.229664103000232,729.3540041089998,None,729.6071429420001,None,,,,,,,,,106,23,2022_Sep_20_1409,templeton_exp2A_SD,2020.2.10,74.95432321016702,
,,,,,,,,,,,,,,,,,,,,,,83,0,83,0,,,,,,,,,,,,,,,,,,,,,,,,0.65,0.75,1.25,,,,,,,,,,,,,,,,,,,,,,,,,,,,,,,,,,,83,720.1937443429999,4,7,3,6,2,5,1,9,1,0,3,730.193650857,None,4,7,3,6,2,5,1,9,0,731.4198594789998,None,731.4198594789998,None,731.4198594789998,None,731.4198594789998,None,731.4198594789998,None,731.4198594789998,None,731.4198594789998,None,731.4198594789998,None,731.5130588149998,732.0195871869998,731.5130588149998,732.0195871869998,731.5130588149998,732.0195871869998,None,None,down,0.9345815900001071,731.5130588149998,None,None,None,z,1.1323101530001622,732.4993510870002,None,733.6456577659999,None,,,,,,,,,106,23,2022_Sep_20_1409,templeton_exp2A_SD,2020.2.10,74.95432321016702,
,,,,,,,,,,,,,,,,,,,,,,84,0,84,0,,,,,,,,,,,,,,,,,,,,,,,,0.65,0.75,1.25,,,,,,,,,,,,,,,,,,,,,,,,,,,,,,,,,,,84,724.23324247,1,9,4,6,0,8,2,7,1,0,2,734.2320624659999,None,1,9,4,6,0,8,2,7,0,735.4582247659998,None,735.4582247659998,None,735.4582247659998,None,735.4582247659998,None,735.4582247659998,None,735.4582247659998,None,735.4582247659998,None,735.4582247659998,None,735.5516780360001,736.0581058559999,735.5516780360001,736.0581058559999,735.5516780360001,736.0581058559999,None,None,left,1.3279760510004053,735.5516780360001,None,None,None,z,0.5552406460001293,736.9244230249999,None,737.4974592400001,None,,,,,,,,,106,23,2022_Sep_20_1409,templeton_exp2A_SD,2020.2.10,74.95432321016702,
,,,,,,,,,,,,,,,,,,,,,,85,0,85,0,,,,,,,,,,,,,,,,,,,,,,,,0.65,0.75,1.25,,,,,,,,,,,,,,,,,,,,,,,,,,,,,,,,,,,85,728.083016798,3,8,1,5,2,9,0,6,1,1,3,738.070611718,None,3,8,1,4,2,9,0,6,0,739.2835154480001,None,739.2835154480001,None,739.2835154480001,None,739.2835154480001,None,739.2835154480001,None,739.2835154480001,None,739.2835154480001,None,739.2835154480001,None,739.390072554,739.8966933579998,739.390072554,739.8966933579998,739.390072554,739.8966933579998,None,None,left,1.1695522130003155,739.390072554,None,None,None,z,0.28455721799991807,740.6031071549999,None,740.9094797219998,None,,,,,,,,,106,23,2022_Sep_20_1409,templeton_exp2A_SD,2020.2.10,74.95432321016702,
,,,,,,,,,,,,,,,,,,,,,,86,0,86,0,,,,,,,,,,,,,,,,,,,,,,,,0.65,0.75,1.25,,,,,,,,,,,,,,,,,,,,,,,,,,,,,,,,,,,86,731.4969708730002,3,9,0,7,1,5,2,6,1,1,6,741.4959810590001,None,3,9,0,7,1,5,4,6,0,742.722143065,None,742.722143065,None,742.722143065,None,742.722143065,None,742.722143065,None,742.722143065,None,742.722143065,None,742.722143065,None,742.8154540950002,743.321878983,742.8154540950002,743.321878983,742.8154540950002,743.321878983,None,None,left,0.8561981560001186,742.8154540950002,None,None,None,z,0.17378098600011072,743.7217981020001,None,743.921694931,None,,,,,,,,,106,23,2022_Sep_20_1409,templeton_exp2A_SD,2020.2.10,74.95432321016702,
,,,,,,,,,,,,,,,,,,,,,,87,0,87,0,,,,,,,,,,,,,,,,,,,,,,,,2.05,0.75,2.05,,,,,,,,,,,,,,,,,,,,,,,,,,,,,,,,,,,87,734.5092119359999,3,6,2,7,0,9,1,8,0,1,1,744.508164091,None,3,4,2,7,0,9,1,8,1,747.1206589129999,None,747.1206589129999,None,747.1206589129999,None,747.1206589129999,None,747.1206589129999,None,747.1206589129999,None,747.1206589129999,None,747.1206589129999,None,745.8276878290001,746.334153689,745.8276878290001,746.334153689,745.8276878290001,746.334153689,None,None,down,1.9270076180000615,747.1206589129999,None,None,None,z,0.6265638659997421,749.0930419250001,None,749.7328398739999,None,,,,,,,,,106,23,2022_Sep_20_1409,templeton_exp2A_SD,2020.2.10,74.95432321016702,
,,,,,,,,,,,,,,,,,,,,,,88,0,88,0,,,,,,,,,,,,,,,,,,,,,,,,2.05,0.75,2.05,,,,,,,,,,,,,,,,,,,,,,,,,,,,,,,,,,,88,740.3205318510002,4,6,3,5,1,8,0,7,0,1,6,750.319387325,None,4,6,3,5,1,8,2,7,2,752.9449572320002,None,752.9449572320002,None,752.9449572320002,None,752.9449572320002,None,752.9449572320002,None,752.9449572320002,None,752.9449572320002,None,752.9449572320002,None,751.638807824,752.1452409890001,751.638807824,752.1452409890001,751.638807824,752.1452409890001,None,None,down,1.398641581999982,752.9449572320002,None,None,None,z,0.40718219099971975,754.3844490109998,None,754.8109177539998,None,,,,,,,,,106,23,2022_Sep_20_1409,templeton_exp2A_SD,2020.2.10,74.95432321016702,
,,,,,,,,,,,,,,,,,,,,,,89,0,89,0,,,,,,,,,,,,,,,,,,,,,,,,0.65,0.75,1.25,,,,,,,,,,,,,,,,,,,,,,,,,,,,,,,,,,,89,745.397627956,3,5,2,7,1,6,0,9,1,1,4,755.397394283,None,3,5,2,7,4,6,0,9,2,756.6103101840001,None,756.6103101840001,None,756.6103101840001,None,756.6103101840001,None,756.6103101840001,None,756.6103101840001,None,756.6103101840001,None,756.6103101840001,None,756.7168984870002,757.2233752330001,756.7168984870002,757.2233752330001,756.7168984870002,757.2233752330001,None,None,left,1.1466737519999697,756.7168984870002,None,None,None,z,0.3632237570000143,757.9164456420001,None,758.3029690579999,None,,,,,,,,,106,23,2022_Sep_20_1409,templeton_exp2A_SD,2020.2.10,74.95432321016702,
,,,,,,,,,,,,,,,,,,,,,,90,0,90,0,,,,,,,,,,,,,,,,,,,,,,,,0.65,0.75,1.25,,,,,,,,,,,,,,,,,,,,,,,,,,,,,,,,,,,90,751.6730670270001,3,7,0,6,1,9,4,5,1,1,5,761.675081828,None,3,7,0,6,1,2,4,5,2,762.9012728730002,None,762.9012728730002,None,762.9012728730002,None,762.9012728730002,None,762.9012728730002,None,762.9012728730002,None,762.9012728730002,None,762.9012728730002,None,762.9944464120001,763.5010497320002,762.9944464120001,763.5010497320002,762.9944464120001,763.5010497320002,None,None,left,4.037227125999834,762.9944464120001,None,None,None,z,0.20669076400008635,767.072974723,None,767.299501014,None,,,,,,,,,106,23,2022_Sep_20_1409,templeton_exp2A_SD,2020.2.10,74.95432321016702,
,,,,,,,,,,,,,,,,,,,,,,91,0,91,0,,,,,,,,,,,,,,,,,,,,,,,,2.05,0.75,2.05,,,,,,,,,,,,,,,,,,,,,,,,,,,,,,,,,,,91,757.8851023600002,3,9,1,7,0,8,4,5,0,0,2,767.8726755370001,None,3,9,1,7,0,8,4,5,0,770.4850124930001,None,770.4850124930001,None,770.4850124930001,None,770.4850124930001,None,770.4850124930001,None,770.4850124930001,None,770.4850124930001,None,770.4850124930001,None,769.1921101810001,769.6986511880002,769.1921101810001,769.6986511880002,769.1921101810001,769.6986511880002,None,None,down,1.3226438249998864,770.4850124930001,None,None,None,x,1.6299043010003516,771.8577656720001,None,773.5104835670002,None,,,,,,,,,106,23,2022_Sep_20_1409,templeton_exp2A_SD,2020.2.10,74.95432321016702,
,,,,,,,,,,,,,,,,,,,,,,92,0,92,0,,,,,,,,,,,,,,,,,,,,,,,,2.05,0.75,2.05,,,,,,,,,,,,,,,,,,,,,,,,,,,,,,,,,,,92,764.0981523450002,1,6,4,5,3,9,0,7,0,0,4,774.0969658060001,None,1,6,4,5,3,9,0,7,1,776.722612191,None,776.722612191,None,776.722612191,None,776.722612191,None,776.722612191,None,776.722612191,None,776.722612191,None,776.722612191,None,775.4164787850002,775.922858099,775.4164787850002,775.922858099,775.4164787850002,775.922858099,None,None,left,1.3090424460001486,776.722612191,None,None,None,c,1.1494692090000171,778.082200225,None,779.255029446,None,,,,,,,,,106,23,2022_Sep_20_1409,templeton_exp2A_SD,2020.2.10,74.95432321016702,
,,,,,,,,,,,,,,,,,,,,,,93,0,93,0,,,,,,,,,,,,,,,,,,,,,,,,2.05,0.75,2.05,,,,,,,,,,,,,,,,,,,,,,,,,,,,,,,,,,,93,769.842371302,0,7,2,5,3,6,1,9,0,1,1,779.8414376439998,None,0,4,2,5,3,6,1,9,2,782.4538843329999,None,782.4538843329999,None,782.4538843329999,None,782.4538843329999,None,782.4538843329999,None,782.4538843329999,None,782.4538843329999,None,782.4538843329999,None,781.160929336,781.667507807,781.160929336,781.667507807,781.160929336,781.667507807,None,None,down,1.1617870200002471,782.4538843329999,None,None,None,z,0.29298655799993867,783.666690449,None,783.9731640309999,None,,,,,,,,,106,23,2022_Sep_20_1409,templeton_exp2A_SD,2020.2.10,74.95432321016702,
,,,,,,,,,,,,,,,,,,,,,,94,0,94,0,,,,,,,,,,,,,,,,,,,,,,,,2.05,0.75,2.05,,,,,,,,,,,,,,,,,,,,,,,,,,,,,,,,,,,94,774.560296634,2,8,3,6,4,9,1,7,0,1,7,784.5597451149999,None,2,8,3,6,4,9,1,0,3,787.1853387970002,None,787.1853387970002,None,787.1853387970002,None,787.1853387970002,None,787.1853387970002,None,787.1853387970002,None,787.1853387970002,None,787.1853387970002,None,785.8791678069999,786.3856612080001,785.8791678069999,786.3856612080001,785.8791678069999,786.3856612080001,None,None,down,1.3982764049997058,787.1853387970002,None,None,None,z,0.5668745919997491,788.6248037799999,None,789.2112040149998,None,,,,,,,,,106,23,2022_Sep_20_1409,templeton_exp2A_SD,2020.2.10,74.95432321016702,
,,,,,,,,,,,,,,,,,,,,,,95,0,95,0,,,,,,,,,,,,,,,,,,,,,,,,0.65,0.75,1.25,,,,,,,,,,,,,,,,,,,,,,,,,,,,,,,,,,,95,779.797172114,3,6,4,8,0,5,1,9,1,1,3,789.7843716969999,None,3,6,4,2,0,5,1,9,3,790.9972928730001,None,790.9972928730001,None,790.9972928730001,None,790.9972928730001,None,790.9972928730001,None,790.9972928730001,None,790.9972928730001,None,790.9972928730001,None,791.103893315,791.610318758,791.103893315,791.610318758,791.103893315,791.610318758,None,None,left,1.7277850589998707,791.103893315,None,None,None,z,0.6671221229998991,792.8764569570001,None,793.5695578299999,None,,,,,,,,,106,23,2022_Sep_20_1409,templeton_exp2A_SD,2020.2.10,74.95432321016702,
,,,,,,,,,,,,,,,,,,,,,,96,0,96,0,,,,,,,,,,,,,,,,,,,,,,,,0.65,0.75,1.25,,,,,,,,,,,,,,,,,,,,,,,,,,,,,,,,,,,96,784.154554341,1,9,3,8,2,6,4,5,1,0,5,794.1427326669998,None,1,9,3,8,2,6,4,5,3,795.3556811840001,None,795.3556811840001,None,795.3556811840001,None,795.3556811840001,None,795.3556811840001,None,795.3556811840001,None,795.3556811840001,None,795.3556811840001,None,795.4623214229998,795.9687847839998,795.4623214229998,795.9687847839998,795.4623214229998,795.9687847839998,None,None,left,1.3933523949999653,795.4623214229998,None,None,None,z,0.4019368700000996,796.9017316299999,None,797.3282165459998,None,,,,,,,,,106,23,2022_Sep_20_1409,templeton_exp2A_SD,2020.2.10,74.95432321016702,
,,,,,,,,,,,,,,,,,,,,,,97,0,97,0,,,,,,,,,,,,,,,,,,,,,,,,0.65,0.75,1.25,,,,,,,,,,,,,,,,,,,,,,,,,,,,,,,,,,,97,787.912254133,0,8,4,5,2,9,3,7,1,1,6,797.9012906340001,None,0,8,4,5,2,9,1,7,3,799.1142242789999,None,799.1142242789999,None,799.1142242789999,None,799.1142242789999,None,799.1142242789999,None,799.1142242789999,None,799.1142242789999,None,799.1142242789999,None,799.2208815189999,799.7271856139998,799.2208815189999,799.7271856139998,799.2208815189999,799.7271856139998,None,None,left,0.8027776429998994,799.2208815189999,None,None,None,z,0.31249429899980896,800.0871854879999,None,800.4203335989998,None,,,,,,,,,106,23,2022_Sep_20_1409,templeton_exp2A_SD,2020.2.10,74.95432321016702,
,,,,,,,,,,,,,,,,,,,,,,98,0,98,0,,,,,,,,,,,,,,,,,,,,,,,,0.65,0.75,1.25,,,,,,,,,,,,,,,,,,,,,,,,,,,,,,,,,,,98,791.005274975,3,8,0,5,1,7,2,9,1,0,5,800.9934500510001,None,3,8,0,5,1,7,2,9,3,802.20633548,None,802.20633548,None,802.20633548,None,802.20633548,None,802.20633548,None,802.20633548,None,802.20633548,None,802.20633548,None,802.3129234840001,802.8194798900001,802.3129234840001,802.8194798900001,802.3129234840001,802.8194798900001,None,None,left,1.046732630000406,802.3129234840001,None,None,None,z,0.31380372300009185,803.4058782049999,None,803.7391063349999,None,,,,,,,,,106,23,2022_Sep_20_1409,templeton_exp2A_SD,2020.2.10,74.95432321016702,
,,,,,,,,,,,,,,,,,,,,,,99,0,99,0,,,,,,,,,,,,,,,,,,,,,,,,2.05,0.75,2.05,,,,,,,,,,,,,,,,,,,,,,,,,,,,,,,,,,,99,794.3237498020001,1,8,2,9,3,5,4,6,0,1,7,804.31221385,None,1,8,2,9,3,5,4,0,0,806.9245470509998,None,806.9245470509998,None,806.9245470509998,None,806.9245470509998,None,806.9245470509998,None,806.9245470509998,None,806.9245470509998,None,806.9245470509998,None,805.6183260290002,806.1247943259998,805.6183260290002,806.1247943259998,805.6183260290002,806.1247943259998,None,None,left,0.9551154440000573,806.9245470509998,None,None,None,z,0.31543646899990563,807.9242447180002,None,808.2573200280001,None,,,,,,,,,106,23,2022_Sep_20_1409,templeton_exp2A_SD,2020.2.10,74.95432321016702,
,,,,,,,,,,,,,,,,,,,,,,100,0,100,0,,,,,,,,,,,,,,,,,,,,,,,,2.05,0.75,2.05,,,,,,,,,,,,,,,,,,,,,,,,,,,,,,,,,,,100,798.8446309220001,2,5,1,9,3,6,0,7,0,1,5,808.8437855069999,None,2,5,1,9,3,4,0,7,1,811.4561878349998,None,811.4561878349998,None,811.4561878349998,None,811.4561878349998,None,811.4561878349998,None,811.4561878349998,None,811.4561878349998,None,811.4561878349998,None,810.1633053130001,810.669714977,810.1633053130001,810.669714977,810.1633053130001,810.669714977,None,None,down,1.1753878290001012,811.4561878349998,None,None,None,z,0.4293266770000628,812.6823117749998,None,813.1354806510001,None,,,,,,,,,106,23,2022_Sep_20_1409,templeton_exp2A_SD,2020.2.10,74.95432321016702,
,,,,,,,,,,,,,,,,,,,,,,101,0,101,0,,,,,,,,,,,,,,,,,,,,,,,,2.05,0.75,2.05,,,,,,,,,,,,,,,,,,,,,,,,,,,,,,,,,,,101,803.7200841609999,3,6,1,5,2,9,4,8,0,0,0,813.7086202500002,None,3,6,1,5,2,9,4,8,2,816.3210051140002,None,816.3210051140002,None,816.3210051140002,None,816.3210051140002,None,816.3210051140002,None,816.3210051140002,None,816.3210051140002,None,816.3210051140002,None,815.0280995149999,815.5346089880002,815.0280995149999,815.5346089880002,815.0280995149999,815.5346089880002,None,None,left,1.2146552609997343,816.3210051140002,None,None,None,z,0.3245311229998151,817.5871384640002,None,817.93371176,None,,,,,,,,,106,23,2022_Sep_20_1409,templeton_exp2A_SD,2020.2.10,74.95432321016702,
,,,,,,,,,,,,,,,,,,,,,,102,0,102,0,,,,,,,,,,,,,,,,,,,,,,,,0.65,0.75,1.25,,,,,,,,,,,,,,,,,,,,,,,,,,,,,,,,,,,102,808.51792163,2,6,3,9,4,5,0,8,1,0,7,818.5068274920002,None,2,6,3,9,4,5,0,8,2,819.7197567179999,None,819.7197567179999,None,819.7197567179999,None,819.7197567179999,None,819.7197567179999,None,819.7197567179999,None,819.7197567179999,None,819.7197567179999,None,819.8129519739998,820.319451091,819.8129519739998,820.319451091,819.8129519739998,820.319451091,None,None,left,1.3866222940000625,819.8129519739998,None,None,None,z,0.3632555859999229,821.2524153090001,None,821.6389940699999,None,,,,,,,,,106,23,2022_Sep_20_1409,templeton_exp2A_SD,2020.2.10,74.95432321016702,
,,,,,,,,,,,,,,,,,,,,,,103,0,103,0,,,,,,,,,,,,,,,,,,,,,,,,2.05,0.75,2.05,,,,,,,,,,,,,,,,,,,,,,,,,,,,,,,,,,,103,812.2270710680002,2,5,4,6,0,8,1,7,0,1,0,822.2253368939998,None,3,5,4,6,0,8,1,7,3,824.8510662609999,None,824.8510662609999,None,824.8510662609999,None,824.8510662609999,None,824.8510662609999,None,824.8510662609999,None,824.8510662609999,None,824.8510662609999,None,823.5582073120001,824.06473957,823.5582073120001,824.06473957,823.5582073120001,824.06473957,None,None,down,0.788610134999999,824.8510662609999,None,None,None,z,0.35690894400022444,825.6907586049999,None,826.0639731429999,None,,,,,,,,,106,23,2022_Sep_20_1409,templeton_exp2A_SD,2020.2.10,74.95432321016702,
,,,,,,,,,,,,,,,,,,,,,,104,0,104,0,,,,,,,,,,,,,,,,,,,,,,,,0.65,0.75,1.25,,,,,,,,,,,,,,,,,,,,,,,,,,,,,,,,,,,104,816.6511559540002,1,8,2,6,0,7,3,9,1,1,0,826.6504630830002,None,4,8,2,6,0,7,3,9,3,827.876503486,None,827.876503486,None,827.876503486,None,827.876503486,None,827.876503486,None,827.876503486,None,827.876503486,None,827.876503486,None,827.9699601220002,828.4763451659999,827.9699601220002,828.4763451659999,827.9699601220002,828.4763451659999,None,None,down,1.3897019940000064,827.9699601220002,None,None,None,z,0.35841689100016083,829.4092877609999,None,829.782506284,None,,,,,,,,,106,23,2022_Sep_20_1409,templeton_exp2A_SD,2020.2.10,74.95432321016702,
,,,,,,,,,,,,,,,,,,,,,,105,0,105,0,,,,,,,,,,,,,,,,,,,,,,,,2.05,0.75,2.05,,,,,,,,,,,,,,,,,,,,,,,,,,,,,,,,,,,105,821.337780785,0,5,1,8,4,9,3,7,0,1,1,831.3286363690002,None,0,2,1,8,4,9,3,7,4,833.9408747670002,None,833.9408747670002,None,833.9408747670002,None,833.9408747670002,None,833.9408747670002,None,833.9408747670002,None,833.9408747670002,None,833.9408747670002,None,832.648146145,833.1546166979999,832.648146145,833.1546166979999,832.648146145,833.1546166979999,None,None,down,2.986686037999789,833.9408747670002,None,None,None,x,0.7878332780001074,836.9798182470001,None,837.7928071869999,None,,,,,,,,,106,23,2022_Sep_20_1409,templeton_exp2A_SD,2020.2.10,74.95432321016702,
,,,,,,,,,,,,,,,,,,,,,,106,0,106,0,,,,,,,,,,,,,,,,,,,,,,,,2.05,0.75,2.05,,,,,,,,,,,,,,,,,,,,,,,,,,,,,,,,,,,106,828.3789193360001,3,9,1,8,2,6,0,5,0,0,3,838.365976454,None,3,9,1,8,2,6,0,5,5,840.978354521,None,840.978354521,None,840.978354521,None,840.978354521,None,840.978354521,None,840.978354521,None,840.978354521,None,840.978354521,None,839.6854593330002,840.1919298949999,839.6854593330002,840.1919298949999,839.6854593330002,840.1919298949999,None,None,left,1.0213109540000005,840.978354521,None,None,None,z,0.40316974699999264,842.0444994239999,None,842.471089592,None,,,,,,,,,106,23,2022_Sep_20_1409,templeton_exp2A_SD,2020.2.10,74.95432321016702,
,,,,,,,,,,,,,,,,,,,,,,107,0,107,0,,,,,,,,,,,,,,,,,,,,,,,,0.65,0.75,1.25,,,,,,,,,,,,,,,,,,,,,,,,,,,,,,,,,,,107,833.058610587,4,5,0,8,3,6,1,9,1,0,7,843.0575084969998,None,4,5,0,8,3,6,1,9,5,844.2703733229998,None,844.2703733229998,None,844.2703733229998,None,844.2703733229998,None,844.2703733229998,None,844.2703733229998,None,844.2703733229998,None,844.2703733229998,None,844.3769115289999,844.8834204379998,844.3769115289999,844.8834204379998,844.3769115289999,844.8834204379998,None,None,left,0.9187954210001408,844.3769115289999,None,None,None,z,0.294983336000314,845.336635338,None,845.6565454859999,None,,,,,,,,,106,23,2022_Sep_20_1409,templeton_exp2A_SD,2020.2.10,74.95432321016702,
,,,,,,,,,,,,,,,,,,,,,,108,0,108,0,,,,,,,,,,,,,,,,,,,,,,,,0.65,0.75,1.25,,,,,,,,,,,,,,,,,,,,,,,,,,,,,,,,,,,108,836.2443103600001,1,7,3,5,4,6,0,8,1,0,0,846.2428866319999,None,1,7,3,5,4,6,0,8,5,847.4691631329999,None,847.4691631329999,None,847.4691631329999,None,847.4691631329999,None,847.4691631329999,None,847.4691631329999,None,847.4691631329999,None,847.4691631329999,None,847.5625174290001,848.069005305,847.5625174290001,848.069005305,847.5625174290001,848.069005305,None,None,left,1.253050587999951,847.5625174290001,None,None,None,z,0.3551808689999234,848.8685619189998,None,849.241847561,None,,,,,,,,,106,23,2022_Sep_20_1409,templeton_exp2A_SD,2020.2.10,74.95432321016702,
,,,,,,,,,,,,,,,,,,,,,,109,0,109,0,,,,,,,,,,,,,,,,,,,,,,,,0.65,0.75,1.25,,,,,,,,,,,,,,,,,,,,,,,,,,,,,,,,,,,109,839.8293840029999,0,7,3,5,4,6,1,9,1,1,3,849.8282091660001,None,0,7,3,2,4,6,1,9,5,851.0545794399998,None,851.0545794399998,None,851.0545794399998,None,851.0545794399998,None,851.0545794399998,None,851.0545794399998,None,851.0545794399998,None,851.0545794399998,None,851.1477691359999,851.654331982,851.1477691359999,851.654331982,851.1477691359999,851.654331982,None,None,down,1.3399088800001664,851.1477691359999,None,None,None,x,1.9537683199996536,852.5339122590001,None,854.506443391,None,,,,,,,,,106,23,2022_Sep_20_1409,templeton_exp2A_SD,2020.2.10,74.95432321016702,
,,,,,,,,,,,,,,,,,,,,,,110,0,110,0,,,,,,,,,,,,,,,,,,,,,,,,0.65,0.75,1.25,,,,,,,,,,,,,,,,,,,,,,,,,,,,,,,,,,,110,845.09303002,1,8,3,5,4,6,2,7,1,1,6,855.092924329,None,1,8,3,5,4,6,0,7,5,856.319198683,None,856.319198683,None,856.319198683,None,856.319198683,None,856.319198683,None,856.319198683,None,856.319198683,None,856.319198683,None,856.4124274399999,856.9190030460002,856.4124274399999,856.9190030460002,856.4124274399999,856.9190030460002,None,None,down,1.475252212000214,856.4124274399999,None,None,None,z,0.4197381479998512,857.9319416209999,None,858.371726777,None,,,,,,,,,106,23,2022_Sep_20_1409,templeton_exp2A_SD,2020.2.10,74.95432321016702,
,,,,,,,,,,,,,,,,,,,,,,111,0,111,0,,,,,,,,,,,,,,,,,,,,,,,,0.65,0.75,1.25,,,,,,,,,,,,,,,,,,,,,,,,,,,,,,,,,,,111,848.9595911479998,1,7,2,6,4,5,0,8,1,1,3,858.958155863,None,1,7,2,3,4,5,0,8,5,860.171108192,None,860.171108192,None,860.171108192,None,860.171108192,None,860.171108192,None,860.171108192,None,860.171108192,None,860.171108192,None,860.2777059799998,860.7841735979998,860.2777059799998,860.7841735979998,860.2777059799998,860.7841735979998,None,None,left,1.385962581000058,860.2777059799998,None,None,None,z,0.5438281800002187,861.7038520240001,None,862.2636315540001,None,,,,,,,,,106,23,2022_Sep_20_1409,templeton_exp2A_SD,2020.2.10,74.95432321016702,
,,,,,,,,,,,,,,,,,,,,,,112,0,112,0,,,,,,,,,,,,,,,,,,,,,,,,0.65,0.75,1.25,,,,,,,,,,,,,,,,,,,,,,,,,,,,,,,,,,,112,852.8493985369998,0,5,1,9,4,8,3,7,1,1,1,862.8367054309999,None,0,2,1,9,4,8,3,7,5,864.049624044,None,864.049624044,None,864.049624044,None,864.049624044,None,864.049624044,None,864.049624044,None,864.049624044,None,864.049624044,None,864.1561843739998,864.6627260050002,864.1561843739998,864.6627260050002,864.1561843739998,864.6627260050002,None,None,left,0.8435274270000264,864.1561843739998,None,None,None,z,0.31859162099999594,865.049086669,None,865.3823531969999,None,,,,,,,,,106,23,2022_Sep_20_1409,templeton_exp2A_SD,2020.2.10,74.95432321016702,
,,,,,,,,,,,,,,,,,,,,,,113,0,113,0,,,,,,,,,,,,,,,,,,,,,,,,2.05,0.75,2.05,,,,,,,,,,,,,,,,,,,,,,,,,,,,,,,,,,,113,855.9663789570002,4,8,2,9,3,7,0,5,0,0,0,865.9555148749998,None,4,8,2,9,3,7,0,5,6,868.567850699,None,868.567850699,None,868.567850699,None,868.567850699,None,868.567850699,None,868.567850699,None,868.567850699,None,868.567850699,None,867.261697741,867.768207375,867.261697741,867.768207375,867.261697741,867.768207375,None,None,left,0.7518025429999398,868.567850699,None,None,None,z,0.27991296699974555,869.3676998419999,None,869.6740461249999,None,,,,,,,,,106,23,2022_Sep_20_1409,templeton_exp2A_SD,2020.2.10,74.95432321016702,
,,,,,,,,,,,,,,,,,,,,,,114,0,114,0,,,,,,,,,,,,,,,,,,,,,,,,2.05,0.75,2.05,,,,,,,,,,,,,,,,,,,,,,,,,,,,,,,,,,,114,860.2586478410001,3,5,2,7,4,9,0,8,0,0,3,870.2472305059998,None,3,5,2,7,4,9,0,8,7,872.8595212809998,None,872.8595212809998,None,872.8595212809998,None,872.8595212809998,None,872.8595212809998,None,872.8595212809998,None,872.8595212809998,None,872.8595212809998,None,871.5533692219999,872.0598812609999,871.5533692219999,872.0598812609999,871.5533692219999,872.0598812609999,None,None,left,0.70812267600013,872.8595212809998,None,None,None,z,0.22837909600002604,873.619242603,None,873.872516139,None,,,,,,,,,106,23,2022_Sep_20_1409,templeton_exp2A_SD,2020.2.10,74.95432321016702,
,,,,,,,,,,,,,,,,,,,,,,115,0,115,0,,,,,,,,,,,,,,,,,,,,,,,,2.05,0.75,2.05,,,,,,,,,,,,,,,,,,,,,,,,,,,,,,,,,,,115,864.4599923030003,3,6,0,7,4,9,1,5,0,1,4,874.4589659159999,None,3,6,0,7,2,9,1,5,0,877.0846355350002,None,877.0846355350002,None,877.0846355350002,None,877.0846355350002,None,877.0846355350002,None,877.0846355350002,None,877.0846355350002,None,877.0846355350002,None,875.778554283,876.2849834410001,875.778554283,876.2849834410001,875.778554283,876.2849834410001,None,None,left,1.3869240439998975,877.0846355350002,None,None,None,z,0.26757982099979927,878.5240592930002,None,878.8172596850002,None,,,,,,,,,106,23,2022_Sep_20_1409,templeton_exp2A_SD,2020.2.10,74.95432321016702,
,,,,,,,,,,,,,,,,,,,,,,116,0,116,0,,,,,,,,,,,,,,,,,,,,,,,,0.65,0.75,1.25,,,,,,,,,,,,,,,,,,,,,,,,,,,,,,,,,,,116,869.4048055240003,0,6,3,7,2,5,1,8,1,0,6,879.4037561419998,None,0,6,3,7,2,5,1,8,0,880.630008198,None,880.630008198,None,880.630008198,None,880.630008198,None,880.630008198,None,880.630008198,None,880.630008198,None,880.630008198,None,880.7232178400002,881.229768463,880.7232178400002,881.229768463,880.7232178400002,881.229768463,None,None,left,0.9323888360004275,880.7232178400002,None,None,None,z,0.27944239599992216,881.696224218,None,881.9894369020001,None,,,,,,,,,106,23,2022_Sep_20_1409,templeton_exp2A_SD,2020.2.10,74.95432321016702,
,,,,,,,,,,,,,,,,,,,,,,117,0,117,0,,,,,,,,,,,,,,,,,,,,,,,,2.05,0.75,2.05,,,,,,,,,,,,,,,,,,,,,,,,,,,,,,,,,,,117,872.5754102640001,2,7,0,6,4,5,3,9,0,0,6,882.5758351110001,None,2,7,0,6,4,5,3,9,1,885.2016483639998,None,885.2016483639998,None,885.2016483639998,None,885.2016483639998,None,885.2016483639998,None,885.2016483639998,None,885.2016483639998,None,885.2016483639998,None,883.895443786,884.401841263,883.895443786,884.401841263,883.895443786,884.401841263,None,None,left,0.8380612159999146,885.2016483639998,None,None,None,z,0.2224733749999359,886.0812076159998,None,886.3211459639999,None,,,,,,,,,106,23,2022_Sep_20_1409,templeton_exp2A_SD,2020.2.10,74.95432321016702,
,,,,,,,,,,,,,,,,,,,,,,118,0,118,0,,,,,,,,,,,,,,,,,,,,,,,,2.05,0.75,2.05,,,,,,,,,,,,,,,,,,,,,,,,,,,,,,,,,,,118,876.9068186360003,4,9,3,5,1,8,0,6,0,0,6,886.907587383,None,4,9,3,5,1,8,0,6,2,889.5199604359998,None,889.5199604359998,None,889.5199604359998,None,889.5199604359998,None,889.5199604359998,None,889.5199604359998,None,889.5199604359998,None,889.5199604359998,None,888.2269600090001,888.7336453310002,888.2269600090001,888.7336453310002,888.2269600090001,888.7336453310002,None,None,left,0.7116913889999523,889.5199604359998,None,None,None,z,0.3598352280000654,890.2797393990002,None,890.6528215780002,None,,,,,,,,,106,23,2022_Sep_20_1409,templeton_exp2A_SD,2020.2.10,74.95432321016702,
,,,,,,,,,,,,,,,,,,,,,,119,0,119,0,,,,,,,,,,,,,,,,,,,,,,,,0.65,0.75,1.25,,,,,,,,,,,,,,,,,,,,,,,,,,,,,,,,,,,119,881.2395356200002,1,6,2,7,3,9,0,5,1,1,7,891.2393305789999,None,1,6,2,7,3,9,0,4,2,892.4654237990001,None,892.4654237990001,None,892.4654237990001,None,892.4654237990001,None,892.4654237990001,None,892.4654237990001,None,892.4654237990001,None,892.4654237990001,None,892.5586983669998,893.0652118539999,892.5586983669998,893.0652118539999,892.5586983669998,893.0652118539999,None,None,down,2.0970161899999766,892.5586983669998,None,None,None,z,0.9269900740000594,894.7046867339998,None,895.650866016,None,,,,,,,,,106,23,2022_Sep_20_1409,templeton_exp2A_SD,2020.2.10,74.95432321016702,
,,,,,,,,,,,,,,,,,,,,,,120,0,120,0,,,,,,,,,,,,,,,,,,,,,,,,2.05,0.75,2.05,,,,,,,,,,,,,,,,,,,,,,,,,,,,,,,,,,,120,887.1783613730001,2,8,4,9,3,5,0,6,0,0,7,897.1704370939999,None,2,8,4,9,3,5,0,6,3,899.7827974519998,None,899.7827974519998,None,899.7827974519998,None,899.7827974519998,None,899.7827974519998,None,899.7827974519998,None,899.7827974519998,None,899.7827974519998,None,898.4897950799998,898.9963697659998,898.4897950799998,898.9963697659998,898.4897950799998,898.9963697659998,None,None,left,0.7688681199997518,899.7827974519998,None,None,None,z,0.28397050100011256,900.5956977489998,None,900.9022232979999,None,,,,,,,,,106,23,2022_Sep_20_1409,templeton_exp2A_SD,2020.2.10,74.95432321016702,
,,,,,,,,,,,,,,,,,,,,,,121,0,121,0,,,,,,,,,,,,,,,,,,,,,,,,0.65,0.75,1.25,,,,,,,,,,,,,,,,,,,,,,,,,,,,,,,,,,,121,891.4892165070003,4,8,3,7,0,5,2,6,1,1,6,901.4887937410001,None,4,8,3,7,0,5,1,6,3,902.7149042909998,None,902.7149042909998,None,902.7149042909998,None,902.7149042909998,None,902.7149042909998,None,902.7149042909998,None,902.7149042909998,None,902.7149042909998,None,902.8215554169999,903.3280132259999,902.8215554169999,903.3280132259999,902.8215554169999,903.3280132259999,None,None,down,1.1701068140000643,902.8215554169999,None,None,None,z,0.33329072800006543,904.034313937,None,904.3808959700002,None,,,,,,,,,106,23,2022_Sep_20_1409,templeton_exp2A_SD,2020.2.10,74.95432321016702,
,,,,,,,,,,,,,,,,,,,,,,122,0,122,0,,,,,,,,,,,,,,,,,,,,,,,,0.65,0.75,1.25,,,,,,,,,,,,,,,,,,,,,,,,,,,,,,,,,,,122,894.9682832680003,1,5,4,6,0,9,2,7,1,0,0,904.9674714260002,None,1,5,4,6,0,9,2,7,3,906.193619466,None,906.193619466,None,906.193619466,None,906.193619466,None,906.193619466,None,906.193619466,None,906.193619466,None,906.193619466,None,906.2868850520001,906.7934676689999,906.2868850520001,906.7934676689999,906.2868850520001,906.7934676689999,None,None,left,0.8727916540001388,906.2868850520001,None,None,None,z,0.29722340700027416,907.2064433560001,None,907.5263688289999,None,,,,,,,,,106,23,2022_Sep_20_1409,templeton_exp2A_SD,2020.2.10,74.95432321016702,
,,,,,,,,,,,,,,,,,,,,,,123,0,123,0,,,,,,,,,,,,,,,,,,,,,,,,0.65,0.75,1.25,,,,,,,,,,,,,,,,,,,,,,,,,,,,,,,,,,,123,898.11377732,1,8,2,9,3,6,0,7,1,1,6,908.112824396,None,1,8,2,9,3,6,4,7,3,909.3390362560001,None,909.3390362560001,None,909.3390362560001,None,909.3390362560001,None,909.3390362560001,None,909.3390362560001,None,909.3390362560001,None,909.3390362560001,None,909.4323298359998,909.9388595749999,909.4323298359998,909.9388595749999,909.4323298359998,909.9388595749999,None,None,down,1.0633428860001004,909.4323298359998,None,None,None,z,0.6611459330001708,910.5385598750001,None,911.2183166299999,None,,,,,,,,,106,23,2022_Sep_20_1409,templeton_exp2A_SD,2020.2.10,74.95432321016702,
,,,,,,,,,,,,,,,,,,,,,,124,0,124,0,,,,,,,,,,,,,,,,,,,,,,,,2.05,0.75,2.05,,,,,,,,,,,,,,,,,,,,,,,,,,,,,,,,,,,124,901.80293745,2,8,1,9,3,5,4,7,0,0,5,911.7914378849998,None,2,8,1,9,3,5,4,7,4,914.4037712450001,None,914.4037712450001,None,914.4037712450001,None,914.4037712450001,None,914.4037712450001,None,914.4037712450001,None,914.4037712450001,None,914.4037712450001,None,913.1109908420001,913.617467751,913.1109908420001,913.617467751,913.1109908420001,913.617467751,None,None,left,1.1319384980001814,914.4037712450001,None,None,None,z,0.30299667899998894,915.576671348,None,915.8965742359999,None,,,,,,,,,106,23,2022_Sep_20_1409,templeton_exp2A_SD,2020.2.10,74.95432321016702,
,,,,,,,,,,,,,,,,,,,,,,125,0,125,0,,,,,,,,,,,,,,,,,,,,,,,,0.65,0.75,1.25,,,,,,,,,,,,,,,,,,,,,,,,,,,,,,,,,,,125,906.4820647889999,0,5,3,7,1,8,2,9,1,1,4,916.4696498189999,None,0,5,3,7,4,8,2,9,4,917.6825073500002,None,917.6825073500002,None,917.6825073500002,None,917.6825073500002,None,917.6825073500002,None,917.6825073500002,None,917.6825073500002,None,917.6825073500002,None,917.775830926,918.2823398930002,917.775830926,918.2823398930002,917.775830926,918.2823398930002,None,None,left,2.479741788999945,917.775830926,None,None,None,z,0.31546185800016247,920.3082227389998,None,920.6414435630002,None,,,,,,,,,106,23,2022_Sep_20_1409,templeton_exp2A_SD,2020.2.10,74.95432321016702,
,,,,,,,,,,,,,,,,,,,,,,126,0,126,0,,,,,,,,,,,,,,,,,,,,,,,,0.65,0.75,1.25,,,,,,,,,,,,,,,,,,,,,,,,,,,,,,,,,,,126,911.227326168,0,9,2,7,4,5,1,8,1,1,5,921.2145311279999,None,0,9,2,7,4,3,1,8,4,922.4274906809999,None,922.4274906809999,None,922.4274906809999,None,922.4274906809999,None,922.4274906809999,None,922.4274906809999,None,922.4274906809999,None,922.4274906809999,None,922.5340543099999,923.0405395330001,922.5340543099999,923.0405395330001,922.5340543099999,923.0405395330001,None,None,left,0.7855394429998341,922.5340543099999,None,None,None,z,0.24724708100029602,923.360429862,None,923.6269320200001,None,,,,,,,,,106,23,2022_Sep_20_1409,templeton_exp2A_SD,2020.2.10,74.95432321016702,
,,,,,,,,,,,,,,,,,,,,,,127,0,127,0,,,,,,,,,,,,,,,,,,,,,,,,0.65,0.75,1.25,,,,,,,,,,,,,,,,,,,,,,,,,,,,,,,,,,,127,914.2144654599999,0,9,2,6,3,7,1,8,1,0,7,924.2134804509999,None,0,9,2,6,3,7,1,8,4,925.4396614629998,None,925.4396614629998,None,925.4396614629998,None,925.4396614629998,None,925.4396614629998,None,925.4396614629998,None,925.4396614629998,None,925.4396614629998,None,925.5330341649999,926.0394712109999,925.5330341649999,926.0394712109999,925.5330341649999,926.0394712109999,None,None,left,0.7946409940000194,925.5330341649999,None,None,None,z,0.3309990870002366,926.3726793339999,None,926.719144771,None,,,,,,,,,106,23,2022_Sep_20_1409,templeton_exp2A_SD,2020.2.10,74.95432321016702,
,,,,,,,,,,,,,,,,,,,,,,128,0,128,0,,,,,,,,,,,,,,,,,,,,,,,,0.65,0.75,1.25,,,,,,,,,,,,,,,,,,,,,,,,,,,,,,,,,,,128,917.3046731000002,4,9,2,6,0,8,1,5,1,1,2,927.292292588,None,4,9,3,6,0,8,1,5,4,928.50510409,None,928.50510409,None,928.50510409,None,928.50510409,None,928.50510409,None,928.50510409,None,928.50510409,None,928.50510409,None,928.6116683749999,929.1182407929998,928.6116683749999,929.1182407929998,928.6116683749999,929.1182407929998,None,None,left,1.2439724759997262,928.6116683749999,None,None,None,z,0.3029539459998887,929.9046785510002,None,930.2244845970001,None,,,,,,,,,106,23,2022_Sep_20_1409,templeton_exp2A_SD,2020.2.10,74.95432321016702,
,,,,,,,,,,,,,,,,,,,,,,129,0,129,0,,,,,,,,,,,,,,,,,,,,,,,,2.05,0.75,2.05,,,,,,,,,,,,,,,,,,,,,,,,,,,,,,,,,,,129,920.8119587150002,0,5,2,9,1,7,4,6,0,0,0,930.8109131680001,None,0,5,2,9,1,7,4,6,0,933.4366481579998,None,933.4366481579998,None,933.4366481579998,None,933.4366481579998,None,933.4366481579998,None,933.4366481579998,None,933.4366481579998,None,933.4366481579998,None,932.130522923,932.6369499139998,932.130522923,932.6369499139998,932.130522923,932.6369499139998,None,None,down,2.346908385000006,933.4366481579998,None,None,None,x,0.14004316000000472,935.8356225370001,None,935.9955848269999,None,,,,,,,,,106,23,2022_Sep_20_1409,templeton_exp2A_SD,2020.2.10,74.95432321016702,
,,,,,,,,,,,,,,,,,,,,,,130,0,130,0,,,,,,,,,,,,,,,,,,,,,,,,2.05,0.75,2.05,,,,,,,,,,,,,,,,,,,,,,,,,,,,,,,,,,,130,926.5830608530002,1,9,3,8,2,7,0,6,0,0,1,936.5821524649998,None,1,9,3,8,2,7,0,6,1,939.2077355839999,None,939.2077355839999,None,939.2077355839999,None,939.2077355839999,None,939.2077355839999,None,939.2077355839999,None,939.2077355839999,None,939.2077355839999,None,937.901573551,938.40807844,937.901573551,938.40807844,937.901573551,938.40807844,None,None,left,0.7039179200000945,939.2077355839999,None,None,None,z,0.3015336070002377,939.9542174609999,None,940.2740417349999,None,,,,,,,,,106,23,2022_Sep_20_1409,templeton_exp2A_SD,2020.2.10,74.95432321016702,
,,,,,,,,,,,,,,,,,,,,,,131,0,131,0,,,,,,,,,,,,,,,,,,,,,,,,0.65,0.75,1.25,,,,,,,,,,,,,,,,,,,,,,,,,,,,,,,,,,,131,930.8618835350001,0,5,4,7,1,9,2,6,1,1,2,940.860453341,None,0,5,3,7,1,9,2,6,1,942.0866531859999,None,942.0866531859999,None,942.0866531859999,None,942.0866531859999,None,942.0866531859999,None,942.0866531859999,None,942.0866531859999,None,942.0866531859999,None,942.1799438330002,942.6864182920001,942.1799438330002,942.6864182920001,942.1799438330002,942.6864182920001,None,None,left,1.1237160450000374,942.1799438330002,None,None,None,z,0.27888054999993983,943.3528317050002,None,943.6460634960001,None,,,,,,,,,106,23,2022_Sep_20_1409,templeton_exp2A_SD,2020.2.10,74.95432321016702,
,,,,,,,,,,,,,,,,,,,,,,132,0,132,0,,,,,,,,,,,,,,,,,,,,,,,,2.05,0.75,2.05,,,,,,,,,,,,,,,,,,,,,,,,,,,,,,,,,,,132,934.2316551219999,3,9,0,6,2,5,1,8,0,0,2,944.2191867839999,None,3,9,0,6,2,5,1,8,2,946.8315244160001,None,946.8315244160001,None,946.8315244160001,None,946.8315244160001,None,946.8315244160001,None,946.8315244160001,None,946.8315244160001,None,946.8315244160001,None,945.5387447320002,946.0451868990001,945.5387447320002,946.0451868990001,945.5387447320002,946.0451868990001,None,None,left,0.3921310449995872,946.8315244160001,None,None,None,z,0.32016273099998216,947.2714127830002,None,947.617846071,None,,,,,,,,,106,23,2022_Sep_20_1409,templeton_exp2A_SD,2020.2.10,74.95432321016702,
,,,,,,,,,,,,,,,,,,,,,,133,0,133,0,,,,,,,,,,,,,,,,,,,,,,,,0.65,0.75,1.25,,,,,,,,,,,,,,,,,,,,,,,,,,,,,,,,,,,133,938.204053618,1,5,3,9,2,7,4,6,1,1,7,948.2043262230002,None,1,5,3,9,2,7,4,0,2,949.417258707,None,949.417258707,None,949.417258707,None,949.417258707,None,949.417258707,None,949.417258707,None,949.417258707,None,949.417258707,None,949.5239073300002,950.03024248,949.5239073300002,950.03024248,949.5239073300002,950.03024248,None,None,left,0.8117728300003364,949.5239073300002,None,None,None,z,0.2868212869998388,950.376857816,None,950.683404267,None,,,,,,,,,106,23,2022_Sep_20_1409,templeton_exp2A_SD,2020.2.10,74.95432321016702,
,,,,,,,,,,,,,,,,,,,,,,134,0,134,0,,,,,,,,,,,,,,,,,,,,,,,,0.65,0.75,1.25,,,,,,,,,,,,,,,,,,,,,,,,,,,,,,,,,,,134,941.2683055260002,2,5,3,8,1,7,4,9,1,0,7,951.2565513080001,None,2,5,3,8,1,7,4,9,2,952.4693925710001,None,952.4693925710001,None,952.4693925710001,None,952.4693925710001,None,952.4693925710001,None,952.4693925710001,None,952.4693925710001,None,952.4693925710001,None,952.576068907,953.0825669769999,952.576068907,953.0825669769999,952.576068907,953.0825669769999,None,None,left,0.6236058200001935,952.576068907,None,None,None,z,0.2932692530002896,953.2423910260002,None,953.5489289059999,None,,,,,,,,,106,23,2022_Sep_20_1409,templeton_exp2A_SD,2020.2.10,74.95432321016702,
