trials_2.thisRepN,trials_2.thisTrialN,trials_2.thisN,trials_2.thisIndex,Used_image_1,Used_image_2,Used_image_3,Used_image_4,Used_image_5,Used_image_6,Used_image_7,Used_image_8,Unused_image_1,Unused_image_2,trials.thisRepN,trials.thisTrialN,trials.thisN,trials.thisIndex,trials_4.thisRepN,trials_4.thisTrialN,trials_4.thisN,trials_4.thisIndex,trials_10.thisRepN,trials_10.thisTrialN,trials_10.thisN,trials_10.thisIndex,welcome.started,welcome.stopped,pointer_dot_0.started,pointer_dot_0.stopped,pointer_dot_1.started,pointer_dot_1.stopped,pointer_dot_2.started,pointer_dot_2.stopped,SD_image.started,SD_image.stopped,memDisplayOnTimePractice,mem_image_0_practice,mem_image_1_practice,mem_image_2_practice,mem_image_3_practice,mem_image_4_practice,mem_image_5_practice,mem_image_6_practice,mem_image_7_practice,retention_interval_practice,retro_0_post_1_practice,change_or_no_practice,cue_location_practice,mem_display_to_test_array_duration_s,mem_display_to_cue_duration_s,routine_duration_s,array_image_1f.started,array_image_1f.stopped,array_image_2f.started,array_image_2f.stopped,array_image_3f.started,array_image_3f.stopped,array_image_4f.started,array_image_4f.stopped,array_image_5f.started,array_image_5f.stopped,array_image_6f.started,array_image_6f.stopped,array_image_7f.started,array_image_7f.stopped,array_image_8f.started,array_image_8f.stopped,pointer_dot_0b.started,pointer_dot_0b.stopped,pointer_dot_1b.started,pointer_dot_1b.stopped,pointer_dot_2b.started,pointer_dot_2b.stopped,sd_practice_resp.keys,sd_practice_resp.rt,sd_practice_resp.started,sd_practice_resp.stopped,text_10.started,text_10.stopped,conf_practice_resp.keys,conf_practice_resp.rt,conf_practice_resp.started,conf_practice_resp.stopped,image.started,image.stopped,training_trial_index,memDisplayOnTimeTraining,mem_image_0_training,mem_image_1_training,mem_image_2_training,mem_image_3_training,mem_image_4_training,mem_image_5_training,mem_image_6_training,mem_image_7_training,retro_0_post_1_training,change_or_no_training,cue_location_training,array_image_1l.started,array_image_1l.stopped,test_image_0_training,test_image_1_training,test_image_2_training,test_image_3_training,test_image_4_training,test_image_5_training,test_image_6_training,test_image_7_training,consecutive_correct_retro_short,array_image_1m.started,array_image_1m.stopped,array_image_2m.started,array_image_2m.stopped,array_image_3m.started,array_image_3m.stopped,array_image_4m.started,array_image_4m.stopped,array_image_5m.started,array_image_5m.stopped,array_image_6m.started,array_image_6m.stopped,array_image_7m.started,array_image_7m.stopped,array_image_8m.started,array_image_8m.stopped,pointer_dot_0d.started,pointer_dot_0d.stopped,pointer_dot_1d.started,pointer_dot_1d.stopped,pointer_dot_2d.started,pointer_dot_2d.stopped,reminder_training.started,reminder_training.stopped,sd_training_resp.keys,sd_training_resp.rt,sd_training_resp.started,sd_training_resp.stopped,text_15.started,text_15.stopped,conf_training_resp.keys,conf_training_resp.rt,conf_training_resp.started,conf_training_resp.stopped,text.started,text.stopped,short_interval_training_finished,training_trial_index_long_this_block,correct_retro_long_this_block,retro_trials_long_this_block,long_interval_block_finished,long_block_retro_acc,reached_criterion,run_out_of_trials,participant,mapping,date,expName,psychopyVersion,frameRate,
,,,,,,,,,,,,,,0,0,0,0,,,,,,,,,32.96251299400001,None,96.63172764699993,None,96.63172764699993,None,96.63172764699993,None,110.81301164299998,None,156.65555687000005,4,7,0,8,1,6,2,9,1.6,1,0,3,1.5,1.6,2.1,191.70240557800003,None,191.70240557800003,None,191.70240557800003,None,191.70240557800003,None,191.70240557800003,None,191.70240557800003,None,191.70240557800003,None,191.70240557800003,None,191.80897068699983,192.31550354700016,191.80897068699983,192.31550354700016,191.80897068699983,192.31550354700016,left,4.230123446000107,191.80897068699983,None,196.10073877399986,None,c,8.458328909999636,196.10073877399986,None,196.10073877399986,None,,,,,,,,,,,,,,,,,,,,,,,,,,,,,,,,,,,,,,,,,,,,,,,,,,,,,,,,,,,,,,,,,,,,,108,23,2022_Sep_21_1237,templeton_exp2A_SD,2020.2.10,37.51375488713102,
,,,,,,,,,,,,,,1,0,1,0,,,,,,,,,,,,,,,,,,,186.8863693029998,0,6,3,8,4,5,2,9,1.6,0,0,5,2.9000000000000004,1.6,2.9000000000000004,223.3303349979999,None,223.3303349979999,None,223.3303349979999,None,223.3303349979999,None,223.3303349979999,None,223.3303349979999,None,223.3303349979999,None,223.3303349979999,None,222.02420950700002,222.5307266960001,222.02420950700002,222.5307266960001,222.02420950700002,222.5307266960001,down,7.1326793369998995,223.3303349979999,None,230.51431656699992,None,c,1.0447461349999685,230.51431656699992,None,230.51431656699992,None,,,,,,,,,,,,,,,,,,,,,,,,,,,,,,,,,,,,,,,,,,,,,,,,,,,,,,,,,,,,,,,,,,,,,108,23,2022_Sep_21_1237,templeton_exp2A_SD,2020.2.10,37.51375488713102,
,,,,,,,,,,,,,,2,0,2,0,,,,,,,,,,,,,,,,,,,204.01415999099981,1,6,2,8,3,9,4,7,1.6,1,1,2,1.5,1.6,2.1,239.07118911500015,None,239.07118911500015,None,239.07118911500015,None,239.07118911500015,None,239.07118911500015,None,239.07118911500015,None,239.07118911500015,None,239.07118911500015,None,239.1776976210001,239.68417882400013,239.1776976210001,239.68417882400013,239.1776976210001,239.68417882400013,left,6.949382917000094,239.1776976210001,None,246.16169384699992,None,c,2.9173818250001204,246.16169384699992,None,246.16169384699992,None,,,,,,,,,,,,,,,,,,,,,,,,,,,,,,,,,,,,,,,,,,,,,,,,,,,,,,,,,,,,,,,,,,,,,108,23,2022_Sep_21_1237,templeton_exp2A_SD,2020.2.10,37.51375488713102,
,,,,,,,,,,,,,,3,0,3,0,,,,,,,,,,,,,,,,,,,222.60631119299978,4,9,2,5,1,7,3,8,1.6,0,1,6,2.9000000000000004,1.6,2.9000000000000004,259.05020959599983,None,259.05020959599983,None,259.05020959599983,None,259.05020959599983,None,259.05020959599983,None,259.05020959599983,None,259.05020959599983,None,259.05020959599983,None,257.74401375699995,258.250472425,257.74401375699995,258.250472425,257.74401375699995,258.250472425,left,7.188896179000039,259.05020959599983,None,266.27411672799985,None,x,1.5649624369998492,266.27411672799985,None,266.27411672799985,None,,,,,,,,,,,,,,,,,,,,,,,,,,,,,,,,,,,,,,,,,,,,,,,,,,,,,,,,,,,,,,,,,,,,,108,23,2022_Sep_21_1237,templeton_exp2A_SD,2020.2.10,37.51375488713102,
,,,,,,,,,,,,,,4,0,4,0,,,,,,,,,,,,,,,,,,,240.70744709099972,0,7,2,9,3,5,4,6,1.6,1,0,4,1.5,1.6,2.1,275.76389786699997,None,275.76389786699997,None,275.76389786699997,None,275.76389786699997,None,275.76389786699997,None,275.76389786699997,None,275.76389786699997,None,275.76389786699997,None,275.8438193919999,276.3503287400001,275.8438193919999,276.3503287400001,275.8438193919999,276.3503287400001,down,12.54714999099997,275.8438193919999,None,288.425704216,None,c,0.9653625579999243,288.425704216,None,288.425704216,None,,,,,,,,,,,,,,,,,,,,,,,,,,,,,,,,,,,,,,,,,,,,,,,,,,,,,,,,,,,,,,,,,,,,,108,23,2022_Sep_21_1237,templeton_exp2A_SD,2020.2.10,37.51375488713102,
,,,,,,,,,,,,,,5,0,5,0,,,,,,,,,,,,,,,,,,,261.07241580599975,3,5,0,9,2,6,1,8,1.6,1,1,2,1.5,1.6,2.1,296.12942593799994,None,296.12942593799994,None,296.12942593799994,None,296.12942593799994,None,296.12942593799994,None,296.12942593799994,None,296.12942593799994,None,296.12942593799994,None,296.2094216799999,296.71594375200016,296.2094216799999,296.71594375200016,296.2094216799999,296.71594375200016,left,3.7656344110000646,296.2094216799999,None,300.02138158899993,None,x,1.2896469850002177,300.02138158899993,None,300.02138158899993,None,,,,,,,,,,,,,,,,,,,,,,,,,,,,,,,,,,,,,,,,,,,,,,,,,,,,,,,,,,,,,,,,,,,,,108,23,2022_Sep_21_1237,templeton_exp2A_SD,2020.2.10,37.51375488713102,
,,,,,,,,,,,,,,6,0,6,0,,,,,,,,,,,,,,,,,,,270.695017213,4,5,1,8,2,9,0,7,1.6,0,1,4,2.9000000000000004,1.6,2.9000000000000004,307.13861024799985,None,307.13861024799985,None,307.13861024799985,None,307.13861024799985,None,307.13861024799985,None,307.13861024799985,None,307.13861024799985,None,307.13861024799985,None,305.832499158,306.33892810400016,305.832499158,306.33892810400016,305.832499158,306.33892810400016,down,2.308441426000172,307.13861024799985,None,309.48443098799976,None,x,1.0506430509999518,309.48443098799976,None,309.48443098799976,None,,,,,,,,,,,,,,,,,,,,,,,,,,,,,,,,,,,,,,,,,,,,,,,,,,,,,,,,,,,,,,,,,,,,,108,23,2022_Sep_21_1237,templeton_exp2A_SD,2020.2.10,37.51375488713102,
,,,,,,,,,,,,,,,,,,,,,,0,0,0,0,,,,,,,,,,,,,,,,,,,,,,,,2.05,0.75,2.05,,,,,,,,,,,,,,,,,,,,,,,,,,,,,,,,,,,0,401.59065890500005,1,6,2,7,0,8,4,9,0,0,7,434.5836443810001,None,1,6,2,7,0,8,4,9,0,437.1960142539999,None,437.1960142539999,None,437.1960142539999,None,437.1960142539999,None,437.1960142539999,None,437.1960142539999,None,437.1960142539999,None,437.1960142539999,None,435.8898406279998,436.396351008,435.8898406279998,436.396351008,435.8898406279998,436.396351008,None,None,down,3.35503556499998,437.1960142539999,None,None,None,c,3.289585594000073,440.62144129800004,None,443.95350466700006,None,,,,,,,,,108,23,2022_Sep_21_1237,templeton_exp2A_SD,2020.2.10,37.51375488713102,
,,,,,,,,,,,,,,,,,,,,,,1,0,1,0,,,,,,,,,,,,,,,,,,,,,,,,2.05,0.75,2.05,,,,,,,,,,,,,,,,,,,,,,,,,,,,,,,,,,,1,411.54095284000005,0,6,3,7,1,9,2,5,0,1,1,444.5399151660001,None,0,4,3,7,1,9,2,5,1,447.13890817900005,None,447.13890817900005,None,447.13890817900005,None,447.13890817900005,None,447.13890817900005,None,447.13890817900005,None,447.13890817900005,None,447.13890817900005,None,445.8593863059998,446.3659094520001,445.8593863059998,446.3659094520001,445.8593863059998,446.3659094520001,None,None,down,1.1881436740000026,447.13890817900005,None,None,None,z,0.311321917999976,448.39175746900014,None,448.7383023499999,None,,,,,,,,,108,23,2022_Sep_21_1237,templeton_exp2A_SD,2020.2.10,37.51375488713102,
,,,,,,,,,,,,,,,,,,,,,,2,0,2,0,,,,,,,,,,,,,,,,,,,,,,,,0.65,0.75,1.25,,,,,,,,,,,,,,,,,,,,,,,,,,,,,,,,,,,2,416.3239462209999,4,6,0,8,2,5,1,9,1,1,7,449.31141324999976,None,4,6,0,8,2,5,1,3,1,450.5242564869998,None,450.5242564869998,None,450.5242564869998,None,450.5242564869998,None,450.5242564869998,None,450.5242564869998,None,450.5242564869998,None,450.5242564869998,None,450.6308318869999,451.1373992649999,450.6308318869999,451.1373992649999,450.6308318869999,451.1373992649999,None,None,left,1.7682203340000342,450.6308318869999,None,None,None,x,0.6887723209997603,452.4702576530001,None,453.19001335200005,None,,,,,,,,,108,23,2022_Sep_21_1237,templeton_exp2A_SD,2020.2.10,37.51375488713102,
,,,,,,,,,,,,,,,,,,,,,,3,0,3,0,,,,,,,,,,,,,,,,,,,,,,,,0.65,0.75,1.25,,,,,,,,,,,,,,,,,,,,,,,,,,,,,,,,,,,3,420.7774741549997,3,6,0,7,2,9,1,8,1,1,5,453.7763936670001,None,3,6,0,7,2,4,1,8,1,455.00258620599993,None,455.00258620599993,None,455.00258620599993,None,455.00258620599993,None,455.00258620599993,None,455.00258620599993,None,455.00258620599993,None,455.00258620599993,None,455.08259565899994,455.5890366189999,455.08259565899994,455.5890366189999,455.08259565899994,455.5890366189999,None,None,down,6.308514018000096,455.08259565899994,None,None,None,c,0.3697050680002576,461.45336560300007,None,461.85337378500003,None,,,,,,,,,108,23,2022_Sep_21_1237,templeton_exp2A_SD,2020.2.10,37.51375488713102,
,,,,,,,,,,,,,,,,,,,,,,4,0,4,0,,,,,,,,,,,,,,,,,,,,,,,,2.05,0.75,2.05,,,,,,,,,,,,,,,,,,,,,,,,,,,,,,,,,,,4,429.4378158569998,3,5,1,8,4,7,2,9,0,0,4,462.42648536,None,3,5,1,8,4,7,2,9,2,465.025417954,None,465.025417954,None,465.025417954,None,465.025417954,None,465.025417954,None,465.025417954,None,465.025417954,None,465.025417954,None,463.7459542690001,464.2524681950001,463.7459542690001,464.2524681950001,463.7459542690001,464.2524681950001,None,None,left,1.6936447699999917,465.025417954,None,None,None,z,0.43823901499990825,466.78483588799986,None,467.2645361980001,None,,,,,,,,,108,23,2022_Sep_21_1237,templeton_exp2A_SD,2020.2.10,37.51375488713102,
,,,,,,,,,,,,,,,,,,,,,,5,0,5,0,,,,,,,,,,,,,,,,,,,,,,,,0.65,0.75,1.25,,,,,,,,,,,,,,,,,,,,,,,,,,,,,,,,,,,5,434.85189815700005,0,9,4,5,2,6,1,7,1,0,0,467.8511143610001,None,0,9,4,5,2,6,1,7,2,469.0772453789998,None,469.0772453789998,None,469.0772453789998,None,469.0772453789998,None,469.0772453789998,None,469.0772453789998,None,469.0772453789998,None,469.0772453789998,None,469.1572317970001,469.6637492299999,469.1572317970001,469.6637492299999,469.1572317970001,469.6637492299999,None,None,left,1.449839959000201,469.1572317970001,None,None,None,z,0.3464134300002115,470.6766603650001,None,471.04988867399993,None,,,,,,,,,108,23,2022_Sep_21_1237,templeton_exp2A_SD,2020.2.10,37.51375488713102,
,,,,,,,,,,,,,,,,,,,,,,6,0,6,0,,,,,,,,,,,,,,,,,,,,,,,,0.65,0.75,1.25,,,,,,,,,,,,,,,,,,,,,,,,,,,,,,,,,,,6,438.63736768499984,1,7,4,6,2,9,0,5,1,0,2,471.63634045899994,None,1,7,4,6,2,9,0,5,2,472.8624997730001,None,472.8624997730001,None,472.8624997730001,None,472.8624997730001,None,472.8624997730001,None,472.8624997730001,None,472.8624997730001,None,472.8624997730001,None,472.9424685810002,473.4489055440001,472.9424685810002,473.4489055440001,472.9424685810002,473.4489055440001,None,None,down,2.256509312000162,472.9424685810002,None,None,None,c,0.4334995889998936,475.26158083999985,None,475.7413682079998,None,,,,,,,,,108,23,2022_Sep_21_1237,templeton_exp2A_SD,2020.2.10,37.51375488713102,
,,,,,,,,,,,,,,,,,,,,,,7,0,7,0,,,,,,,,,,,,,,,,,,,,,,,,0.65,0.75,1.25,,,,,,,,,,,,,,,,,,,,,,,,,,,,,,,,,,,7,443.328408504,3,9,1,6,4,7,2,5,1,0,1,476.3278525869998,None,3,9,1,6,4,7,2,5,2,477.540690866,None,477.540690866,None,477.540690866,None,477.540690866,None,477.540690866,None,477.540690866,None,477.540690866,None,477.540690866,None,477.64739041000007,478.15386721499976,477.64739041000007,478.15386721499976,477.64739041000007,478.15386721499976,486.897223403,None,left,10.527670942999976,477.64739041000007,None,None,None,x,0.6091234390000864,488.23000199500007,None,488.86981038299996,None,,,,,,,,,108,23,2022_Sep_21_1237,templeton_exp2A_SD,2020.2.10,37.51375488713102,
,,,,,,,,,,,,,,,,,,,,,,8,0,8,0,,,,,,,,,,,,,,,,,,,,,,,,2.05,0.75,2.05,,,,,,,,,,,,,,,,,,,,,,,,,,,,,,,,,,,8,456.45568200499974,4,8,0,6,1,9,2,5,0,1,4,489.442873447,None,4,8,0,6,3,9,2,5,0,492.0418197759998,None,492.0418197759998,None,492.0418197759998,None,492.0418197759998,None,492.0418197759998,None,492.0418197759998,None,492.0418197759998,None,492.0418197759998,None,490.7623842129999,491.2688933400002,490.7623842129999,491.2688933400002,490.7623842129999,491.2688933400002,None,None,left,3.8532275269999445,492.0418197759998,None,None,None,c,0.5426235230002021,495.96043880599996,None,496.5468906550002,None,,,,,,,,,108,23,2022_Sep_21_1237,templeton_exp2A_SD,2020.2.10,37.51375488713102,
,,,,,,,,,,,,,,,,,,,,,,9,0,9,0,,,,,,,,,,,,,,,,,,,,,,,,2.05,0.75,2.05,,,,,,,,,,,,,,,,,,,,,,,,,,,,,,,,,,,9,464.1326776369997,3,8,0,7,4,5,2,6,0,1,2,497.13333743199996,None,3,8,1,7,4,5,2,6,1,499.7589750310001,None,499.7589750310001,None,499.7589750310001,None,499.7589750310001,None,499.7589750310001,None,499.7589750310001,None,499.7589750310001,None,499.7589750310001,None,498.4528379269998,498.9592737720002,498.4528379269998,498.9592737720002,498.4528379269998,498.9592737720002,None,None,down,1.3440174910001588,499.7589750310001,None,None,None,z,0.20325658399997337,501.1717681980001,None,501.41168252400007,None,,,,,,,,,108,23,2022_Sep_21_1237,templeton_exp2A_SD,2020.2.10,37.51375488713102,
,,,,,,,,,,,,,,,,,,,,,,10,0,10,0,,,,,,,,,,,,,,,,,,,,,,,,0.65,0.75,1.25,,,,,,,,,,,,,,,,,,,,,,,,,,,,,,,,,,,10,468.9971469009997,0,6,2,8,3,9,1,5,1,1,3,501.98484917400015,None,0,6,2,4,3,9,1,5,1,503.1977044140001,None,503.1977044140001,None,503.1977044140001,None,503.1977044140001,None,503.1977044140001,None,503.1977044140001,None,503.1977044140001,None,503.1977044140001,None,503.30435967100016,503.8107606340002,503.30435967100016,503.8107606340002,503.30435967100016,503.8107606340002,None,None,left,3.0627116590003425,503.30435967100016,None,None,None,x,0.37598385000001144,506.42308091100017,None,506.8495830300001,None,,,,,,,,,108,23,2022_Sep_21_1237,templeton_exp2A_SD,2020.2.10,37.51375488713102,
,,,,,,,,,,,,,,,,,,,,,,11,0,11,0,,,,,,,,,,,,,,,,,,,,,,,,2.05,0.75,2.05,,,,,,,,,,,,,,,,,,,,,,,,,,,,,,,,,,,11,474.4351808900001,0,8,4,9,3,5,1,7,0,1,4,507.42279690600003,None,0,8,4,9,2,5,1,7,2,510.1017618210001,None,510.1017618210001,None,510.1017618210001,None,510.1017618210001,None,510.1017618210001,None,510.1017618210001,None,510.1017618210001,None,510.1017618210001,None,508.7955828339998,509.3020659729998,508.7955828339998,509.3020659729998,508.7955828339998,509.3020659729998,None,None,down,2.5612974310001846,510.1017618210001,None,None,None,z,0.32235133799986215,512.7407143399998,None,513.1139530789999,None,,,,,,,,,108,23,2022_Sep_21_1237,templeton_exp2A_SD,2020.2.10,37.51375488713102,
,,,,,,,,,,,,,,,,,,,,,,12,0,12,0,,,,,,,,,,,,,,,,,,,,,,,,0.65,0.75,1.25,,,,,,,,,,,,,,,,,,,,,,,,,,,,,,,,,,,12,480.69742503399993,2,8,3,9,4,5,0,7,1,0,7,513.6870725780002,None,2,8,3,9,4,5,0,7,2,514.8998910769999,None,514.8998910769999,None,514.8998910769999,None,514.8998910769999,None,514.8998910769999,None,514.8998910769999,None,514.8998910769999,None,514.8998910769999,None,514.9798596359999,515.4863791370001,514.9798596359999,515.4863791370001,514.9798596359999,515.4863791370001,None,None,left,2.8351938749997316,514.9798596359999,None,None,None,z,0.4095445389998531,517.8855206679998,None,518.3385938170002,None,,,,,,,,,108,23,2022_Sep_21_1237,templeton_exp2A_SD,2020.2.10,37.51375488713102,
,,,,,,,,,,,,,,,,,,,,,,13,0,13,0,,,,,,,,,,,,,,,,,,,,,,,,0.65,0.75,1.25,,,,,,,,,,,,,,,,,,,,,,,,,,,,,,,,,,,13,485.92824290399994,2,9,1,8,3,6,0,5,1,1,1,518.925043085,None,2,4,1,8,3,6,0,5,2,520.1379729970001,None,520.1379729970001,None,520.1379729970001,None,520.1379729970001,None,520.1379729970001,None,520.1379729970001,None,520.1379729970001,None,520.1379729970001,None,520.244574696,520.7511100909999,520.244574696,520.7511100909999,520.244574696,520.7511100909999,None,None,left,3.114493542999753,520.244574696,None,None,None,x,0.5583156640000198,523.416714576,None,524.0031123199999,None,,,,,,,,,108,23,2022_Sep_21_1237,templeton_exp2A_SD,2020.2.10,37.51375488713102,
,,,,,,,,,,,,,,,,,,,,,,14,0,14,0,,,,,,,,,,,,,,,,,,,,,,,,0.65,0.75,1.25,,,,,,,,,,,,,,,,,,,,,,,,,,,,,,,,,,,14,491.59068621000006,3,8,1,6,0,7,4,9,1,1,3,524.5895655480001,None,3,8,1,2,0,7,4,9,2,525.8024293309998,None,525.8024293309998,None,525.8024293309998,None,525.8024293309998,None,525.8024293309998,None,525.8024293309998,None,525.8024293309998,None,525.8024293309998,None,525.9091070880002,526.4155572890002,525.9091070880002,526.4155572890002,525.9091070880002,526.4155572890002,None,None,left,1.9379650279997804,525.9091070880002,None,None,None,x,0.8346989500000745,527.908371928,None,528.7880379219998,None,,,,,,,,,108,23,2022_Sep_21_1237,templeton_exp2A_SD,2020.2.10,37.51375488713102,
,,,,,,,,,,,,,,,,,,,,,,15,0,15,0,,,,,,,,,,,,,,,,,,,,,,,,2.05,0.75,2.05,,,,,,,,,,,,,,,,,,,,,,,,,,,,,,,,,,,15,539.1930434789997,2,8,1,9,4,6,3,5,0,0,3,572.1848770909999,None,2,8,1,9,4,6,3,5,3,574.7839173619998,None,574.7839173619998,None,574.7839173619998,None,574.7839173619998,None,574.7839173619998,None,574.7839173619998,None,574.7839173619998,None,574.7839173619998,None,573.5043688190001,574.0108414889999,573.5043688190001,574.0108414889999,573.5043688190001,574.0108414889999,None,None,left,2.1430946979999135,574.7839173619998,None,None,None,z,0.250647127999855,576.9964126379998,None,577.2895034599999,None,,,,,,,,,108,23,2022_Sep_21_1237,templeton_exp2A_SD,2020.2.10,37.51375488713102,
,,,,,,,,,,,,,,,,,,,,,,16,0,16,0,,,,,,,,,,,,,,,,,,,,,,,,0.65,0.75,1.25,,,,,,,,,,,,,,,,,,,,,,,,,,,,,,,,,,,16,544.8763310740001,3,7,2,6,0,9,4,8,1,0,6,577.8761257429999,None,3,7,2,6,0,9,4,8,3,579.0887699570001,None,579.0887699570001,None,579.0887699570001,None,579.0887699570001,None,579.0887699570001,None,579.0887699570001,None,579.0887699570001,None,579.0887699570001,None,579.1955831990001,579.702055339,579.1955831990001,579.702055339,579.1955831990001,579.702055339,None,None,left,2.3715328729999783,579.1955831990001,None,None,None,x,0.31372775699992417,581.6213483959998,None,581.967858368,None,,,,,,,,,108,23,2022_Sep_21_1237,templeton_exp2A_SD,2020.2.10,37.51375488713102,
,,,,,,,,,,,,,,,,,,,,,,17,0,17,0,,,,,,,,,,,,,,,,,,,,,,,,2.05,0.75,2.05,,,,,,,,,,,,,,,,,,,,,,,,,,,,,,,,,,,17,549.5543736149998,1,9,4,7,2,5,3,6,0,1,0,582.5543201130001,None,0,9,4,7,2,5,3,6,4,585.1799183400001,None,585.1799183400001,None,585.1799183400001,None,585.1799183400001,None,585.1799183400001,None,585.1799183400001,None,585.1799183400001,None,585.1799183400001,None,583.873801943,584.3802764449999,583.873801943,584.3802764449999,583.873801943,584.3802764449999,None,None,down,2.9151281619997462,585.1799183400001,None,None,None,x,0.4335584890000064,588.1655181250001,None,588.6452841500002,None,,,,,,,,,108,23,2022_Sep_21_1237,templeton_exp2A_SD,2020.2.10,37.51375488713102,
,,,,,,,,,,,,,,,,,,,,,,18,0,18,0,,,,,,,,,,,,,,,,,,,,,,,,2.05,0.75,2.05,,,,,,,,,,,,,,,,,,,,,,,,,,,,,,,,,,,18,556.2293894909999,4,5,2,9,0,6,3,8,0,0,5,589.2184463649999,None,4,5,2,9,0,6,3,8,5,591.8173847669998,None,591.8173847669998,None,591.8173847669998,None,591.8173847669998,None,591.8173847669998,None,591.8173847669998,None,591.8173847669998,None,591.8173847669998,None,590.5112895240002,591.0177141339998,590.5112895240002,591.0177141339998,590.5112895240002,591.0177141339998,None,None,left,1.8935733930002243,591.8173847669998,None,None,None,z,0.3770908579999741,593.789972629,None,594.2165137899999,None,,,,,,,,,108,23,2022_Sep_21_1237,templeton_exp2A_SD,2020.2.10,37.51375488713102,
,,,,,,,,,,,,,,,,,,,,,,19,0,19,0,,,,,,,,,,,,,,,,,,,,,,,,0.65,0.75,1.25,,,,,,,,,,,,,,,,,,,,,,,,,,,,,,,,,,,19,561.802556958,0,9,2,6,3,8,4,7,1,0,2,594.80299575,None,0,9,2,6,3,8,4,7,5,596.015811083,None,596.015811083,None,596.015811083,None,596.015811083,None,596.015811083,None,596.015811083,None,596.015811083,None,596.015811083,None,596.1224496719999,596.628995326,596.1224496719999,596.628995326,596.1224496719999,596.628995326,None,None,left,1.6686170859998128,596.1224496719999,None,None,None,z,0.279884509999647,597.8551967340002,None,598.1750330829998,None,,,,,,,,,108,23,2022_Sep_21_1237,templeton_exp2A_SD,2020.2.10,37.51375488713102,
,,,,,,,,,,,,,,,,,,,,,,20,0,20,0,,,,,,,,,,,,,,,,,,,,,,,,0.65,0.75,1.25,,,,,,,,,,,,,,,,,,,,,,,,,,,,,,,,,,,20,565.7613634300001,0,8,4,6,2,7,3,9,1,0,2,598.7614618149998,None,0,8,4,6,2,7,3,9,5,599.9743122759999,None,599.9743122759999,None,599.9743122759999,None,599.9743122759999,None,599.9743122759999,None,599.9743122759999,None,599.9743122759999,None,599.9743122759999,None,600.081003304,600.5874260590001,600.081003304,600.5874260590001,600.081003304,600.5874260590001,None,None,left,2.494056031999662,600.081003304,None,None,None,x,0.3590548080001099,602.6400226110002,None,603.0398775189999,None,,,,,,,,,108,23,2022_Sep_21_1237,templeton_exp2A_SD,2020.2.10,37.51375488713102,
,,,,,,,,,,,,,,,,,,,,,,21,0,21,0,,,,,,,,,,,,,,,,,,,,,,,,2.05,0.75,2.05,,,,,,,,,,,,,,,,,,,,,,,,,,,,,,,,,,,21,570.6272416799998,0,7,1,6,4,5,3,9,0,1,1,603.626281776,None,0,2,1,6,4,5,3,9,6,606.2252885239998,None,606.2252885239998,None,606.2252885239998,None,606.2252885239998,None,606.2252885239998,None,606.2252885239998,None,606.2252885239998,None,606.2252885239998,None,604.9458231219999,605.4522945659999,604.9458231219999,605.4522945659999,604.9458231219999,605.4522945659999,None,None,down,2.3017609439998523,606.2252885239998,None,None,None,z,0.5133006649998606,608.5977764239999,None,609.157471196,None,,,,,,,,,108,23,2022_Sep_21_1237,templeton_exp2A_SD,2020.2.10,37.51375488713102,
,,,,,,,,,,,,,,,,,,,,,,22,0,22,0,,,,,,,,,,,,,,,,,,,,,,,,2.05,0.75,2.05,,,,,,,,,,,,,,,,,,,,,,,,,,,,,,,,,,,22,576.7433960799999,0,9,1,6,3,8,4,5,0,0,0,609.730671949,None,0,9,1,6,3,8,4,5,7,612.3296859079999,None,612.3296859079999,None,612.3296859079999,None,612.3296859079999,None,612.3296859079999,None,612.3296859079999,None,612.3296859079999,None,612.3296859079999,None,611.0501728820002,611.5566145679998,611.0501728820002,611.5566145679998,611.0501728820002,611.5566145679998,None,None,left,1.1253643199997896,612.3296859079999,None,None,None,z,0.30988966700033416,613.5291868020001,None,613.8757352340001,None,,,,,,,,,108,23,2022_Sep_21_1237,templeton_exp2A_SD,2020.2.10,37.51375488713102,
,,,,,,,,,,,,,,,,,,,,,,23,0,23,0,,,,,,,,,,,,,,,,,,,,,,,,0.65,0.75,1.25,,,,,,,,,,,,,,,,,,,,,,,,,,,,,,,,,,,23,581.461442108,1,5,2,6,0,8,4,9,1,0,5,614.4488836600001,None,1,5,2,6,0,8,4,9,7,615.661749613,None,615.661749613,None,615.661749613,None,615.661749613,None,615.661749613,None,615.661749613,None,615.661749613,None,615.661749613,None,615.7683875519999,616.2748856979999,615.7683875519999,616.2748856979999,615.7683875519999,616.2748856979999,None,None,left,1.5585925519999364,615.7683875519999,None,None,None,z,0.380665592999776,617.394400466,None,617.8209569359999,None,,,,,,,,,108,23,2022_Sep_21_1237,templeton_exp2A_SD,2020.2.10,37.51375488713102,
,,,,,,,,,,,,,,,,,,,,,,24,0,24,0,,,,,,,,,,,,,,,,,,,,,,,,0.65,0.75,1.25,,,,,,,,,,,,,,,,,,,,,,,,,,,,,,,,,,,24,585.4068460129997,1,5,0,9,4,7,3,8,1,0,1,618.3940236450001,None,1,5,0,9,4,7,3,8,7,619.6068983580001,None,619.6068983580001,None,619.6068983580001,None,619.6068983580001,None,619.6068983580001,None,619.6068983580001,None,619.6068983580001,None,619.6068983580001,None,619.71355621,620.2199845470002,619.71355621,620.2199845470002,619.71355621,620.2199845470002,None,None,left,1.3735184209999716,619.71355621,None,None,None,z,0.5340282580000348,621.1530160129998,None,621.7394084800001,None,,,,,,,,,108,23,2022_Sep_21_1237,templeton_exp2A_SD,2020.2.10,37.51375488713102,
,,,,,,,,,,,,,,,,,,,,,,25,0,25,0,,,,,,,,,,,,,,,,,,,,,,,,0.65,0.75,1.25,,,,,,,,,,,,,,,,,,,,,,,,,,,,,,,,,,,25,589.3276855519998,4,6,0,9,3,8,1,7,1,1,7,622.3258776,None,4,6,0,9,3,8,1,2,7,623.538730516,None,623.538730516,None,623.538730516,None,623.538730516,None,623.538730516,None,623.538730516,None,623.538730516,None,623.538730516,None,623.645404695,624.1518817160002,623.645404695,624.1518817160002,623.645404695,624.1518817160002,None,None,down,1.889662744999896,623.645404695,None,None,None,z,0.32774112799961586,625.591334593,None,625.9645199089998,None,,,,,,,,,108,23,2022_Sep_21_1237,templeton_exp2A_SD,2020.2.10,37.51375488713102,
,,,,,,,,,,,,,,,,,,,,,,26,0,26,0,,,,,,,,,,,,,,,,,,,,,,,,0.65,0.75,1.25,,,,,,,,,,,,,,,,,,,,,,,,,,,,,,,,,,,26,593.549640401,1,5,2,7,0,8,4,9,1,0,7,626.537589925,None,1,5,2,7,0,8,4,9,7,627.7505091249998,None,627.7505091249998,None,627.7505091249998,None,627.7505091249998,None,627.7505091249998,None,627.7505091249998,None,627.7505091249998,None,627.7505091249998,None,627.857092423,628.363612241,627.857092423,628.363612241,627.857092423,628.363612241,None,None,left,1.1899743969997871,627.857092423,None,None,None,x,0.4331165730000066,629.109960985,None,629.5897821219999,None,,,,,,,,,108,23,2022_Sep_21_1237,templeton_exp2A_SD,2020.2.10,37.51375488713102,
,,,,,,,,,,,,,,,,,,,,,,27,0,27,0,,,,,,,,,,,,,,,,,,,,,,,,2.05,0.75,2.05,,,,,,,,,,,,,,,,,,,,,,,,,,,,,,,,,,,27,597.1775248589997,1,9,0,7,3,8,4,6,0,1,3,630.176260301,None,1,9,0,2,3,8,4,6,8,632.8018817200002,None,632.8018817200002,None,632.8018817200002,None,632.8018817200002,None,632.8018817200002,None,632.8018817200002,None,632.8018817200002,None,632.8018817200002,None,631.495751448,632.002233728,631.495751448,632.002233728,631.495751448,632.002233728,None,None,down,2.1171840340002746,632.8018817200002,None,None,None,z,0.37927528399995936,634.9877987040002,None,635.4142782739998,None,1,,,,,,,,108,23,2022_Sep_21_1237,templeton_exp2A_SD,2020.2.10,37.51375488713102,
,,,,,,,,,,,,,,,,,,,,,,28,0,28,0,,,,,,,,,,,,,,,,,,,,,,,,1.5,1.6,2.1,,,,,,,,,,,,,,,,,,,,,,,,,,,,,,,,,,,28,603.0020574199998,4,9,0,6,3,8,1,7,1,1,7,636.0006435759999,None,4,9,0,6,3,8,1,2,,638.0666070949999,None,638.0666070949999,None,638.0666070949999,None,638.0666070949999,None,638.0666070949999,None,638.0666070949999,None,638.0666070949999,None,638.0666070949999,None,638.173193285,638.6796850640001,638.173193285,638.6796850640001,638.173193285,638.6796850640001,None,None,down,1.3778982819999328,638.173193285,None,None,None,z,0.6503419929999836,639.6126866779998,None,640.3057549980001,None,,0,0,0,,,,,108,23,2022_Sep_21_1237,templeton_exp2A_SD,2020.2.10,37.51375488713102,
,,,,,,,,,,,,,,,,,,,,,,29,0,29,0,,,,,,,,,,,,,,,,,,,,,,,,1.9,2.0,2.5,,,,,,,,,,,,,,,,,,,,,,,,,,,,,,,,,,,29,607.8925412369999,3,5,2,7,1,9,0,6,1,0,4,640.8921096040001,None,3,5,2,7,1,9,0,6,,643.371260701,None,643.371260701,None,643.371260701,None,643.371260701,None,643.371260701,None,643.371260701,None,643.371260701,None,643.371260701,None,643.451236272,643.9576632199999,643.451236272,643.9576632199999,643.451236272,643.9576632199999,None,None,left,4.659835651999856,643.451236272,None,None,None,x,0.3176371009999457,648.1694394230001,None,648.5159777440001,None,,1,0,0,,,,,108,23,2022_Sep_21_1237,templeton_exp2A_SD,2020.2.10,37.51375488713102,
,,,,,,,,,,,,,,,,,,,,,,30,0,30,0,,,,,,,,,,,,,,,,,,,,,,,,2.5,2.6,3.1,,,,,,,,,,,,,,,,,,,,,,,,,,,,,,,,,,,30,644.1289676860001,4,9,0,5,2,7,1,6,1,1,5,677.1318076280002,None,4,9,0,5,2,3,1,6,,680.1839799460001,None,680.1839799460001,None,680.1839799460001,None,680.1839799460001,None,680.1839799460001,None,680.1839799460001,None,680.1839799460001,None,680.1839799460001,None,680.2905317849998,680.7970759490001,680.2905317849998,680.7970759490001,680.2905317849998,680.7970759490001,None,None,down,4.748523925999962,680.2905317849998,None,None,None,c,0.34768297100026757,685.1153670709998,None,685.5152528579999,None,,2,0,0,,,,,108,23,2022_Sep_21_1237,templeton_exp2A_SD,2020.2.10,37.51375488713102,
,,,,,,,,,,,,,,,,,,,,,,31,0,31,0,,,,,,,,,,,,,,,,,,,,,,,,2.9000000000000004,1.6,2.9000000000000004,,,,,,,,,,,,,,,,,,,,,,,,,,,,,,,,,,,31,653.102431836,1,6,0,7,3,9,2,5,0,0,0,686.1017351160001,None,1,6,0,7,3,9,2,5,,689.5671460450001,None,689.5671460450001,None,689.5671460450001,None,689.5671460450001,None,689.5671460450001,None,689.5671460450001,None,689.5671460450001,None,689.5671460450001,None,688.26091569,688.76738297,688.26091569,688.76738297,688.26091569,688.76738297,None,None,down,1.6239046370001233,689.5671460450001,None,None,None,z,0.3686306159997912,691.2464467819998,None,691.646296529,None,,3,0,1,,,,,108,23,2022_Sep_21_1237,templeton_exp2A_SD,2020.2.10,37.51375488713102,
,,,,,,,,,,,,,,,,,,,,,,32,0,32,0,,,,,,,,,,,,,,,,,,,,,,,,2.9000000000000004,1.6,2.9000000000000004,,,,,,,,,,,,,,,,,,,,,,,,,,,,,,,,,,,32,659.2329685219997,1,9,4,8,2,7,3,6,0,0,0,692.2326599290002,None,1,9,4,8,2,7,3,6,,695.6847686829999,None,695.6847686829999,None,695.6847686829999,None,695.6847686829999,None,695.6847686829999,None,695.6847686829999,None,695.6847686829999,None,695.6847686829999,None,694.4052122390001,694.9116736809999,694.4052122390001,694.9116736809999,694.4052122390001,694.9116736809999,702.8020807579999,None,down,7.570284750000155,695.6847686829999,None,None,None,x,0.49064206999992166,703.3084356309998,None,703.8416305849998,None,,4,0,2,,,,,108,23,2022_Sep_21_1237,templeton_exp2A_SD,2020.2.10,37.51375488713102,
,,,,,,,,,,,,,,,,,,,,,,33,0,33,0,,,,,,,,,,,,,,,,,,,,,,,,2.9000000000000004,1.6,2.9000000000000004,,,,,,,,,,,,,,,,,,,,,,,,,,,,,,,,,,,33,671.4294130429998,4,8,0,5,1,6,2,7,0,1,4,704.4281230150002,None,4,8,0,5,3,6,2,7,,707.8801399440001,None,707.8801399440001,None,707.8801399440001,None,707.8801399440001,None,707.8801399440001,None,707.8801399440001,None,707.8801399440001,None,707.8801399440001,None,706.6005830219999,707.1070717790001,706.6005830219999,707.1070717790001,706.6005830219999,707.1070717790001,None,None,left,3.606921236999824,707.8801399440001,None,None,None,x,0.34438260300021284,711.5586957419998,None,711.931900326,None,,5,0,3,,,,,108,23,2022_Sep_21_1237,templeton_exp2A_SD,2020.2.10,37.51375488713102,
,,,,,,,,,,,,,,,,,,,,,,34,0,34,0,,,,,,,,,,,,,,,,,,,,,,,,2.9000000000000004,1.6,2.9000000000000004,,,,,,,,,,,,,,,,,,,,,,,,,,,,,,,,,,,34,679.515827828,4,6,3,5,2,8,0,9,0,1,3,712.5049859909998,None,4,6,3,1,2,8,0,9,,715.9570088899998,None,715.9570088899998,None,715.9570088899998,None,715.9570088899998,None,715.9570088899998,None,715.9570088899998,None,715.9570088899998,None,715.9570088899998,None,714.6775642370001,715.1840502570001,714.6775642370001,715.1840502570001,714.6775642370001,715.1840502570001,None,None,down,1.3300739179999255,715.9570088899998,None,None,None,z,0.23184453700014274,717.3432320909999,None,717.6096710270001,None,,6,1,4,,,,,108,23,2022_Sep_21_1237,templeton_exp2A_SD,2020.2.10,37.51375488713102,
,,,,,,,,,,,,,,,,,,,,,,35,0,35,0,,,,,,,,,,,,,,,,,,,,,,,,2.9000000000000004,1.6,2.9000000000000004,,,,,,,,,,,,,,,,,,,,,,,,,,,,,,,,,,,35,685.197429204,2,7,3,9,1,6,0,8,0,0,3,718.196194588,None,2,7,3,9,1,6,0,8,,721.66154846,None,721.66154846,None,721.66154846,None,721.66154846,None,721.66154846,None,721.66154846,None,721.66154846,None,721.66154846,None,720.3553334750002,720.8618604599999,720.3553334750002,720.8618604599999,720.3553334750002,720.8618604599999,None,None,left,1.3935105200002909,721.66154846,None,None,None,z,0.3353377459998228,723.1276912010001,None,723.5008974280001,None,,7,2,5,,,,,108,23,2022_Sep_21_1237,templeton_exp2A_SD,2020.2.10,37.51375488713102,
,,,,,,,,,,,,,,,,,,,,,,36,0,36,0,,,,,,,,,,,,,,,,,,,,,,,,2.9000000000000004,1.6,2.9000000000000004,,,,,,,,,,,,,,,,,,,,,,,,,,,,,,,,,,,36,691.0859586319998,3,9,0,7,4,8,1,5,0,0,2,724.0739287200001,None,3,9,0,7,4,8,1,5,,727.5260063779999,None,727.5260063779999,None,727.5260063779999,None,727.5260063779999,None,727.5260063779999,None,727.5260063779999,None,727.5260063779999,None,727.5260063779999,None,726.2465220779998,726.7529988979998,726.2465220779998,726.7529988979998,726.2465220779998,726.7529988979998,None,None,down,4.424945728000239,727.5260063779999,None,None,None,x,0.3067084989997966,732.0043631840001,None,732.3508881229998,None,,8,2,6,,,,,108,23,2022_Sep_21_1237,templeton_exp2A_SD,2020.2.10,37.51375488713102,
,,,,,,,,,,,,,,,,,,,,,,37,0,37,0,,,,,,,,,,,,,,,,,,,,,,,,2.9000000000000004,1.6,2.9000000000000004,,,,,,,,,,,,,,,,,,,,,,,,,,,,,,,,,,,37,699.937875952,3,8,1,9,2,7,4,6,0,1,6,732.9373261180001,None,3,8,1,9,2,7,0,6,,736.4026804950001,None,736.4026804950001,None,736.4026804950001,None,736.4026804950001,None,736.4026804950001,None,736.4026804950001,None,736.4026804950001,None,736.4026804950001,None,735.096452048,735.6029769170002,735.096452048,735.6029769170002,735.096452048,735.6029769170002,None,None,down,2.3803796830002284,736.4026804950001,None,None,None,z,0.2719521280000663,738.8551117879999,None,739.1748835440001,None,,9,3,7,,,,,108,23,2022_Sep_21_1237,templeton_exp2A_SD,2020.2.10,37.51375488713102,
,,,,,,,,,,,,,,,,,,,,,,38,0,38,0,,,,,,,,,,,,,,,,,,,,,,,,2.9000000000000004,1.6,2.9000000000000004,,,,,,,,,,,,,,,,,,,,,,,,,,,,,,,,,,,38,706.7602976809999,0,6,1,8,3,5,2,9,0,1,6,739.748079791,None,0,6,1,8,3,5,4,9,,743.2000856470002,None,743.2000856470002,None,743.2000856470002,None,743.2000856470002,None,743.2000856470002,None,743.2000856470002,None,743.2000856470002,None,743.2000856470002,None,741.920536935,742.4270243140002,741.920536935,742.4270243140002,741.920536935,742.4270243140002,None,None,down,1.0230019499999798,743.2000856470002,None,None,None,z,0.21812243500016848,744.292941296,None,744.5595297749999,None,,10,4,8,,,,,108,23,2022_Sep_21_1237,templeton_exp2A_SD,2020.2.10,37.51375488713102,
,,,,,,,,,,,,,,,,,,,,,,39,0,39,0,,,,,,,,,,,,,,,,,,,,,,,,3.1,3.2,3.7,,,,,,,,,,,,,,,,,,,,,,,,,,,,,,,,,,,39,712.1460539939999,2,8,4,7,3,6,0,9,1,1,4,745.1460343649999,None,2,8,4,7,1,6,0,9,,748.824547421,None,748.824547421,None,748.824547421,None,748.824547421,None,748.824547421,None,748.824547421,None,748.824547421,None,748.824547421,None,748.9046502899998,749.411020881,748.9046502899998,749.411020881,748.9046502899998,749.411020881,None,None,left,4.0383736959997805,748.9046502899998,None,None,None,x,0.33339120900018315,753.0096817820001,None,753.3828565480001,None,,11,4,8,,,,,108,23,2022_Sep_21_1237,templeton_exp2A_SD,2020.2.10,37.51375488713102,
,,,,,,,,,,,,,,,,,,,,,,40,0,40,0,,,,,,,,,,,,,,,,,,,,,,,,1.7,1.8,2.3,,,,,,,,,,,,,,,,,,,,,,,,,,,,,,,,,,,40,720.9702509919998,1,8,0,7,4,6,2,5,1,1,5,753.969275663,None,1,8,0,7,4,3,2,5,,756.2218641359998,None,756.2218641359998,None,756.2218641359998,None,756.2218641359998,None,756.2218641359998,None,756.2218641359998,None,756.2218641359998,None,756.2218641359998,None,756.328456041,756.8349268929999,756.328456041,756.8349268929999,756.328456041,756.8349268929999,None,None,left,2.2946109610002168,756.328456041,None,None,None,z,0.26617750100012927,758.7008902619998,None,758.9941103610001,None,,12,4,8,,,,,108,23,2022_Sep_21_1237,templeton_exp2A_SD,2020.2.10,37.51375488713102,
,,,,,,,,,,,,,,,,,,,,,,41,0,41,0,,,,,,,,,,,,,,,,,,,,,,,,1.9,2.0,2.5,,,,,,,,,,,,,,,,,,,,,,,,,,,,,,,,,,,41,726.5831973949998,4,8,1,6,2,5,0,9,1,1,6,759.5805600870001,None,4,8,1,6,2,5,3,9,,762.046290131,None,762.046290131,None,762.046290131,None,762.046290131,None,762.046290131,None,762.046290131,None,762.046290131,None,762.046290131,None,762.1262257139999,762.6326774719998,762.1262257139999,762.6326774719998,762.1262257139999,762.6326774719998,None,None,left,2.3368443729996216,762.1262257139999,None,None,None,x,0.28974708700025076,764.525315827,None,764.8452207349999,None,,13,4,8,,,,,108,23,2022_Sep_21_1237,templeton_exp2A_SD,2020.2.10,37.51375488713102,
,,,,,,,,,,,,,,,,,,,,,,42,0,42,0,,,,,,,,,,,,,,,,,,,,,,,,2.9000000000000004,1.6,2.9000000000000004,,,,,,,,,,,,,,,,,,,,,,,,,,,,,,,,,,,42,732.4333350510001,2,7,1,6,0,9,4,8,0,0,1,765.431673546,None,2,7,1,6,0,9,4,8,,768.8970317209998,None,768.8970317209998,None,768.8970317209998,None,768.8970317209998,None,768.8970317209998,None,768.8970317209998,None,768.8970317209998,None,768.8970317209998,None,767.5908224679999,768.0973315600002,767.5908224679999,768.0973315600002,767.5908224679999,768.0973315600002,None,None,down,6.302014823999798,768.8970317209998,None,None,None,x,0.21106908000001567,775.2679528639999,None,775.5077948199998,None,,14,4,9,,,,,108,23,2022_Sep_21_1237,templeton_exp2A_SD,2020.2.10,37.51375488713102,
,,,,,,,,,,,,,,,,,,,,,,43,0,43,0,,,,,,,,,,,,,,,,,,,,,,,,2.3000000000000003,2.4000000000000004,2.9000000000000004,,,,,,,,,,,,,,,,,,,,,,,,,,,,,,,,,,,43,743.094190191,2,6,4,5,0,8,3,7,1,0,6,776.0941139839999,None,2,6,4,5,0,8,3,7,,778.959881772,None,778.959881772,None,778.959881772,None,778.959881772,None,778.959881772,None,778.959881772,None,778.959881772,None,778.959881772,None,779.0664620649998,779.5729519139998,779.0664620649998,779.5729519139998,779.0664620649998,779.5729519139998,None,None,left,4.372500935000062,779.0664620649998,None,None,None,x,0.20887573799973325,783.5181551449998,None,783.757991917,None,,15,4,9,,,,,108,23,2022_Sep_21_1237,templeton_exp2A_SD,2020.2.10,37.51375488713102,
,,,,,,,,,,,,,,,,,,,,,,44,0,44,0,,,,,,,,,,,,,,,,,,,,,,,,2.9000000000000004,1.6,2.9000000000000004,,,,,,,,,,,,,,,,,,,,,,,,,,,,,,,,,,,44,751.3455156139999,0,7,2,9,1,8,3,6,0,0,2,784.3444734060001,None,0,7,2,9,1,8,3,6,,787.8098291389999,None,787.8098291389999,None,787.8098291389999,None,787.8098291389999,None,787.8098291389999,None,787.8098291389999,None,787.8098291389999,None,787.8098291389999,None,786.5036900349999,787.010110081,786.5036900349999,787.010110081,786.5036900349999,787.010110081,None,None,left,2.5652225280000494,787.8098291389999,None,None,None,x,0.3582575180003005,790.448817014,None,790.8487139380002,None,,16,5,10,,,,,108,23,2022_Sep_21_1237,templeton_exp2A_SD,2020.2.10,37.51375488713102,
,,,,,,,,,,,,,,,,,,,,,,45,0,45,0,,,,,,,,,,,,,,,,,,,,,,,,2.9000000000000004,1.6,2.9000000000000004,,,,,,,,,,,,,,,,,,,,,,,,,,,,,,,,,,,45,783.8761644629999,0,6,4,5,1,7,3,9,0,1,6,816.878812148,None,0,6,4,5,1,7,2,9,,820.3442246440002,None,820.3442246440002,None,820.3442246440002,None,820.3442246440002,None,820.3442246440002,None,820.3442246440002,None,820.3442246440002,None,820.3442246440002,None,819.0380559100001,819.544501871,819.0380559100001,819.544501871,819.0380559100001,819.544501871,None,None,down,1.1348250840001128,820.3442246440002,None,None,None,z,0.19928095399973245,821.5437106450001,None,821.783611225,None,,17,6,11,,,,,108,23,2022_Sep_21_1237,templeton_exp2A_SD,2020.2.10,37.51375488713102,
,,,,,,,,,,,,,,,,,,,,,,46,0,46,0,,,,,,,,,,,,,,,,,,,,,,,,2.9000000000000004,1.6,2.9000000000000004,,,,,,,,,,,,,,,,,,,,,,,,,,,,,,,,,,,46,789.3709136550001,0,7,1,9,3,5,2,6,0,1,2,822.37005303,None,0,7,4,9,3,5,2,6,,825.8221270010001,None,825.8221270010001,None,825.8221270010001,None,825.8221270010001,None,825.8221270010001,None,825.8221270010001,None,825.8221270010001,None,825.8221270010001,None,824.5425391850001,825.0490838379999,824.5425391850001,825.0490838379999,824.5425391850001,825.0490838379999,None,None,down,2.6009310149997873,825.8221270010001,None,None,None,x,0.31133998999985124,828.4877320469998,None,828.834320533,None,,18,7,12,,,,,108,23,2022_Sep_21_1237,templeton_exp2A_SD,2020.2.10,37.51375488713102,
,,,,,,,,,,,,,,,,,,,,,,47,0,47,0,,,,,,,,,,,,,,,,,,,,,,,,2.5,2.6,3.1,,,,,,,,,,,,,,,,,,,,,,,,,,,,,,,,,,,47,796.4209638499997,3,8,0,6,4,9,1,5,1,0,3,829.4207688089998,None,3,8,0,6,4,9,1,5,,832.4728563420001,None,832.4728563420001,None,832.4728563420001,None,832.4728563420001,None,832.4728563420001,None,832.4728563420001,None,832.4728563420001,None,832.4728563420001,None,832.5795324779999,833.0860396420001,832.5795324779999,833.0860396420001,832.5795324779999,833.0860396420001,None,None,left,1.8275263280002036,832.5795324779999,None,None,None,x,0.31093284600001425,834.4721441089998,None,834.8187152560001,None,,19,7,12,,,,,108,23,2022_Sep_21_1237,templeton_exp2A_SD,2020.2.10,37.51375488713102,
,,,,,,,,,,,,,,,,,,,,,,48,0,48,0,,,,,,,,,,,,,,,,,,,,,,,,2.9000000000000004,1.6,2.9000000000000004,,,,,,,,,,,,,,,,,,,,,,,,,,,,,,,,,,,48,802.4052080819997,3,6,0,8,4,7,2,9,0,0,1,835.4051092120001,None,3,6,0,8,4,7,2,9,,838.8571015230002,None,838.8571015230002,None,838.8571015230002,None,838.8571015230002,None,838.8571015230002,None,838.8571015230002,None,838.8571015230002,None,838.8571015230002,None,837.57763624,838.084155278,837.57763624,838.084155278,837.57763624,838.084155278,None,None,left,2.13385186000005,838.8571015230002,None,None,None,z,0.23337462700010292,841.0696885780001,None,841.3362656000002,None,,20,8,13,,,,,108,23,2022_Sep_21_1237,templeton_exp2A_SD,2020.2.10,37.51375488713102,
,,,,,,,,,,,,,,,,,,,,,,49,0,49,0,,,,,,,,,,,,,,,,,,,,,,,,2.9000000000000004,1.6,2.9000000000000004,,,,,,,,,,,,,,,,,,,,,,,,,,,,,,,,,,,49,808.9206592410001,3,7,4,9,2,5,0,8,0,0,1,841.909304651,None,3,7,4,9,2,5,0,8,,845.3614115379999,None,845.3614115379999,None,845.3614115379999,None,845.3614115379999,None,845.3614115379999,None,845.3614115379999,None,845.3614115379999,None,845.3614115379999,None,844.0551805809998,844.5616349539998,844.0551805809998,844.5616349539998,844.0551805809998,844.5616349539998,None,None,down,3.3016493270001774,845.3614115379999,None,None,None,z,0.27900324099982754,848.7201159939998,None,849.0399496789998,None,,21,8,14,,,,,108,23,2022_Sep_21_1237,templeton_exp2A_SD,2020.2.10,37.51375488713102,
,,,,,,,,,,,,,,,,,,,,,,50,0,50,0,,,,,,,,,,,,,,,,,,,,,,,,2.9000000000000004,1.6,2.9000000000000004,,,,,,,,,,,,,,,,,,,,,,,,,,,,,,,,,,,50,816.6256871139999,1,8,4,7,3,5,0,9,0,1,1,849.6131268000001,None,1,2,4,7,3,5,0,9,,853.065126193,None,853.065126193,None,853.065126193,None,853.065126193,None,853.065126193,None,853.065126193,None,853.065126193,None,853.065126193,None,851.7855844640001,852.2920567429999,851.7855844640001,852.2920567429999,851.7855844640001,852.2920567429999,None,None,down,2.781934567999997,853.065126193,None,None,None,z,0.16968324400022539,855.9173955150002,None,856.1306423859999,None,,22,9,15,,,,,108,23,2022_Sep_21_1237,templeton_exp2A_SD,2020.2.10,37.51375488713102,
,,,,,,,,,,,,,,,,,,,,,,51,0,51,0,,,,,,,,,,,,,,,,,,,,,,,,2.7,2.8000000000000003,3.3000000000000003,,,,,,,,,,,,,,,,,,,,,,,,,,,,,,,,,,,51,823.7170313880001,3,5,4,8,2,7,1,6,1,1,1,856.7170940200001,None,3,0,4,8,2,7,1,6,,859.9958462920001,None,859.9958462920001,None,859.9958462920001,None,859.9958462920001,None,859.9958462920001,None,859.9958462920001,None,859.9958462920001,None,859.9958462920001,None,860.0757367160002,860.5822868309999,860.0757367160002,860.5822868309999,860.0757367160002,860.5822868309999,None,None,down,1.6033200110000507,860.0757367160002,None,None,None,z,0.22796644499976537,861.7551098209999,None,862.0217549930001,None,,23,9,15,,,,,108,23,2022_Sep_21_1237,templeton_exp2A_SD,2020.2.10,37.51375488713102,
,,,,,,,,,,,,,,,,,,,,,,52,0,52,0,,,,,,,,,,,,,,,,,,,,,,,,2.9000000000000004,1.6,2.9000000000000004,,,,,,,,,,,,,,,,,,,,,,,,,,,,,,,,,,,52,829.6074023219999,0,5,1,9,2,8,4,7,0,1,5,862.5948140789999,None,0,5,1,9,2,3,4,7,,866.0468849850001,None,866.0468849850001,None,866.0468849850001,None,866.0468849850001,None,866.0468849850001,None,866.0468849850001,None,866.0468849850001,None,866.0468849850001,None,864.7406709159998,865.2471499559999,864.7406709159998,865.2471499559999,864.7406709159998,865.2471499559999,None,None,down,5.368162619999566,866.0468849850001,None,None,None,x,0.3862614559998292,871.484818311,None,871.9112925890001,None,,24,10,16,,,,,108,23,2022_Sep_21_1237,templeton_exp2A_SD,2020.2.10,37.51375488713102,
,,,,,,,,,,,,,,,,,,,,,,53,0,53,0,,,,,,,,,,,,,,,,,,,,,,,,1.9,2.0,2.5,,,,,,,,,,,,,,,,,,,,,,,,,,,,,,,,,,,53,839.4958833979999,2,7,1,5,4,9,3,8,1,0,0,872.484460249,None,2,7,1,5,4,9,3,8,,874.9501760810001,None,874.9501760810001,None,874.9501760810001,None,874.9501760810001,None,874.9501760810001,None,874.9501760810001,None,874.9501760810001,None,874.9501760810001,None,875.0301469909998,875.5366180580002,875.0301469909998,875.5366180580002,875.0301469909998,875.5366180580002,None,None,left,4.336920207000276,875.0301469909998,None,None,None,c,0.30663710199996785,879.428445019,None,879.7749753129999,None,,25,10,16,,,,,108,23,2022_Sep_21_1237,templeton_exp2A_SD,2020.2.10,37.51375488713102,
,,,,,,,,,,,,,,,,,,,,,,54,0,54,0,,,,,,,,,,,,,,,,,,,,,,,,2.9000000000000004,1.6,2.9000000000000004,,,,,,,,,,,,,,,,,,,,,,,,,,,,,,,,,,,54,847.3621946210001,1,9,0,5,2,6,3,7,0,1,4,880.3614155309999,None,1,9,0,5,4,6,3,7,,883.8267648980002,None,883.8267648980002,None,883.8267648980002,None,883.8267648980002,None,883.8267648980002,None,883.8267648980002,None,883.8267648980002,None,883.8267648980002,None,882.5206476679998,883.0270700389999,882.5206476679998,883.0270700389999,882.5206476679998,883.0270700389999,None,None,left,4.196296165000149,883.8267648980002,None,None,None,x,0.26719753700035653,888.091776338,None,888.4117074960002,None,,26,10,17,,,,,108,23,2022_Sep_21_1237,templeton_exp2A_SD,2020.2.10,37.51375488713102,
,,,,,,,,,,,,,,,,,,,,,,55,0,55,0,,,,,,,,,,,,,,,,,,,,,,,,2.9000000000000004,1.6,2.9000000000000004,,,,,,,,,,,,,,,,,,,,,,,,,,,,,,,,,,,55,855.9972277829997,4,5,0,6,1,9,2,8,0,1,0,888.9981868090001,None,3,5,0,6,1,9,2,8,,892.4502151519998,None,892.4502151519998,None,892.4502151519998,None,892.4502151519998,None,892.4502151519998,None,892.4502151519998,None,892.4502151519998,None,892.4502151519998,None,891.170648988,891.6771377570001,891.170648988,891.6771377570001,891.170648988,891.6771377570001,None,None,down,4.500842853999984,892.4502151519998,None,None,None,z,0.27865308399987043,897.0084231789999,None,897.3283278010001,None,,27,11,18,,,,,108,23,2022_Sep_21_1237,templeton_exp2A_SD,2020.2.10,37.51375488713102,
,,,,,,,,,,,,,,,,,,,,,,56,0,56,0,,,,,,,,,,,,,,,,,,,,,,,,3.5,3.6,4.1,,,,,,,,,,,,,,,,,,,,,,,,,,,,,,,,,,,56,864.9158789749999,1,5,2,6,4,7,0,8,1,1,2,897.914799766,None,1,5,3,6,4,7,0,8,,901.993214927,None,901.993214927,None,901.993214927,None,901.993214927,None,901.993214927,None,901.993214927,None,901.993214927,None,901.993214927,None,902.0732385409999,902.5795357159998,902.0732385409999,902.5795357159998,902.0732385409999,902.5795357159998,None,None,left,4.277831511999921,902.0732385409999,None,None,None,x,0.38883025899986023,906.4182463479999,None,906.8447163059998,None,,28,11,18,,,,,108,23,2022_Sep_21_1237,templeton_exp2A_SD,2020.2.10,37.51375488713102,
,,,,,,,,,,,,,,,,,,,,,,57,0,57,0,,,,,,,,,,,,,,,,,,,,,,,,2.9000000000000004,1.6,2.9000000000000004,,,,,,,,,,,,,,,,,,,,,,,,,,,,,,,,,,,57,874.430117765,4,9,1,8,0,7,2,5,0,0,5,907.4178416980001,None,4,9,1,8,0,7,2,5,,910.8698953800001,None,910.8698953800001,None,910.8698953800001,None,910.8698953800001,None,910.8698953800001,None,910.8698953800001,None,910.8698953800001,None,910.8698953800001,None,909.5903599340002,910.0968582590001,909.5903599340002,910.0968582590001,909.5903599340002,910.0968582590001,None,None,left,1.185256112999923,910.8698953800001,None,None,None,z,0.244346485999813,912.1227212239999,None,912.4159823020002,None,,29,12,19,,,,,108,23,2022_Sep_21_1237,templeton_exp2A_SD,2020.2.10,37.51375488713102,
,,,,,,,,,,,,,,,,,,,,,,58,0,58,0,,,,,,,,,,,,,,,,,,,,,,,,1.7,1.8,2.3,,,,,,,,,,,,,,,,,,,,,,,,,,,,,,,,,,,58,880.0037166520001,0,8,1,6,4,7,3,5,1,0,2,913.002427485,None,0,8,1,6,4,7,3,5,,915.268242156,None,915.268242156,None,915.268242156,None,915.268242156,None,915.268242156,None,915.268242156,None,915.268242156,None,915.268242156,None,915.3748269519999,915.8813332729999,915.3748269519999,915.8813332729999,915.3748269519999,915.8813332729999,None,None,left,1.4322675399998843,915.3748269519999,None,None,None,z,0.33145635399978346,916.867620273,None,917.2407693160001,None,,30,12,19,,,,,108,23,2022_Sep_21_1237,templeton_exp2A_SD,2020.2.10,37.51375488713102,
,,,,,,,,,,,,,,,,,,,,,,59,0,59,0,,,,,,,,,,,,,,,,,,,,,,,,2.9000000000000004,1.6,2.9000000000000004,,,,,,,,,,,,,,,,,,,,,,,,,,,,,,,,,,,59,884.8283419939999,0,9,1,7,3,6,4,8,0,1,7,917.8272181720001,None,0,9,1,7,3,6,4,2,,921.2925026390001,None,921.2925026390001,None,921.2925026390001,None,921.2925026390001,None,921.2925026390001,None,921.2925026390001,None,921.2925026390001,None,921.2925026390001,None,919.9864436270002,920.4928833759998,919.9864436270002,920.4928833759998,919.9864436270002,920.4928833759998,None,None,down,2.8985569619999296,921.2925026390001,None,None,None,c,0.3475596080002106,924.2514915180002,None,924.6513566460001,None,,31,13,20,,,,,108,23,2022_Sep_21_1237,templeton_exp2A_SD,2020.2.10,37.51375488713102,
,,,,,,,,,,,,,,,,,,,,,,60,0,60,0,,,,,,,,,,,,,,,,,,,,,,,,2.9000000000000004,1.6,2.9000000000000004,,,,,,,,,,,,,,,,,,,,,,,,,,,,,,,,,,,60,917.889344699,2,9,0,5,4,8,3,6,0,0,0,950.881321138,None,2,9,0,5,4,8,3,6,,954.3334249940001,None,954.3334249940001,None,954.3334249940001,None,954.3334249940001,None,954.3334249940001,None,954.3334249940001,None,954.3334249940001,None,954.3334249940001,None,953.0272627420002,953.5337310369998,953.0272627420002,953.5337310369998,953.0272627420002,953.5337310369998,None,None,left,5.593625123000038,954.3334249940001,None,None,None,x,0.29441339699997116,959.9846209489999,None,960.33112392,None,,32,14,21,,,,,108,23,2022_Sep_21_1237,templeton_exp2A_SD,2020.2.10,37.51375488713102,
,,,,,,,,,,,,,,,,,,,,,,61,0,61,0,,,,,,,,,,,,,,,,,,,,,,,,2.7,2.8000000000000003,3.3000000000000003,,,,,,,,,,,,,,,,,,,,,,,,,,,,,,,,,,,61,927.9186802270001,1,8,3,7,4,6,0,9,1,0,7,960.9174720610001,None,1,8,3,7,4,6,0,9,,964.19635971,None,964.19635971,None,964.19635971,None,964.19635971,None,964.19635971,None,964.19635971,None,964.19635971,None,964.19635971,None,964.2763538349998,964.7827998549999,964.2763538349998,964.7827998549999,964.2763538349998,964.7827998549999,None,None,left,4.754716878999716,964.2763538349998,None,None,None,x,0.2738980899998751,969.1011681500001,None,969.4210895650001,None,,33,14,21,,,,,108,23,2022_Sep_21_1237,templeton_exp2A_SD,2020.2.10,37.51375488713102,
,,,,,,,,,,,,,,,,,,,,,,62,0,62,0,,,,,,,,,,,,,,,,,,,,,,,,2.7,2.8000000000000003,3.3000000000000003,,,,,,,,,,,,,,,,,,,,,,,,,,,,,,,,,,,62,937.0086819879998,4,5,0,7,1,6,3,8,1,1,4,970.007348586,None,4,5,0,7,2,6,3,8,,973.2729250750001,None,973.2729250750001,None,973.2729250750001,None,973.2729250750001,None,973.2729250750001,None,973.2729250750001,None,973.2729250750001,None,973.2729250750001,None,973.3795118139999,973.886026158,973.3795118139999,973.886026158,973.3795118139999,973.886026158,980.5767825830001,None,down,8.68356058900008,973.3795118139999,None,None,None,x,0.46021150999968086,982.1228654610002,None,982.6293703869999,None,,34,14,21,,,,,108,23,2022_Sep_21_1237,templeton_exp2A_SD,2020.2.10,37.51375488713102,
,,,,,,,,,,,,,,,,,,,,,,63,0,63,0,,,,,,,,,,,,,,,,,,,,,,,,2.9000000000000004,1.6,2.9000000000000004,,,,,,,,,,,,,,,,,,,,,,,,,,,,,,,,,,,63,950.2164775669999,2,7,0,9,4,6,1,5,0,1,4,983.2157880860002,None,2,7,0,9,3,6,1,5,,986.6811720859998,None,986.6811720859998,None,986.6811720859998,None,986.6811720859998,None,986.6811720859998,None,986.6811720859998,None,986.6811720859998,None,986.6811720859998,None,985.3749314720001,985.8814230589999,985.3749314720001,985.8814230589999,985.3749314720001,985.8814230589999,None,None,down,1.7418889749997106,986.6811720859998,None,None,None,z,0.3772425150000345,988.4938225170001,None,988.9203306450001,None,,35,15,22,,,,,108,23,2022_Sep_21_1237,templeton_exp2A_SD,2020.2.10,37.51375488713102,
,,,,,,,,,,,,,,,,,,,,,,64,0,64,0,,,,,,,,,,,,,,,,,,,,,,,,2.9000000000000004,1.6,2.9000000000000004,,,,,,,,,,,,,,,,,,,,,,,,,,,,,,,,,,,64,956.5078484430001,3,7,0,6,1,9,4,5,0,1,3,989.5067909820002,None,3,7,0,2,1,9,4,5,,992.9587368649998,None,992.9587368649998,None,992.9587368649998,None,992.9587368649998,None,992.9587368649998,None,992.9587368649998,None,992.9587368649998,None,992.9587368649998,None,991.6526212860001,992.159058896,991.6526212860001,992.159058896,991.6526212860001,992.159058896,None,None,down,2.1123132429997895,992.9587368649998,None,None,None,x,0.42250966100027654,995.1445686969998,None,995.5978021519998,None,,36,16,23,,,,,108,23,2022_Sep_21_1237,templeton_exp2A_SD,2020.2.10,37.51375488713102,
,,,,,,,,,,,,,,,,,,,,,,65,0,65,0,,,,,,,,,,,,,,,,,,,,,,,,2.9000000000000004,1.6,2.9000000000000004,,,,,,,,,,,,,,,,,,,,,,,,,,,,,,,,,,,65,963.1832526160001,0,9,4,5,2,6,1,8,0,1,0,996.170924281,None,3,9,4,5,2,6,1,8,,999.622905897,None,999.622905897,None,999.622905897,None,999.622905897,None,999.622905897,None,999.622905897,None,999.622905897,None,999.622905897,None,998.316771129,998.8231976919999,998.316771129,998.8231976919999,998.316771129,998.8231976919999,None,None,left,1.9121398239999507,999.622905897,None,None,None,z,0.3075491280001188,1001.595524957,None,1001.9419948709999,None,,37,16,24,,,,,108,23,2022_Sep_21_1237,templeton_exp2A_SD,2020.2.10,37.51375488713102,
,,,,,,,,,,,,,,,,,,,,,,66,0,66,0,,,,,,,,,,,,,,,,,,,,,,,,2.9000000000000004,1.6,2.9000000000000004,,,,,,,,,,,,,,,,,,,,,,,,,,,,,,,,,,,66,969.5277710589999,4,8,0,5,3,6,1,9,0,1,5,1002.528501773,None,4,8,0,5,3,2,1,9,,1005.9805312209999,None,1005.9805312209999,None,1005.9805312209999,None,1005.9805312209999,None,1005.9805312209999,None,1005.9805312209999,None,1005.9805312209999,None,1005.9805312209999,None,1004.6743803269999,1005.1808291340001,1004.6743803269999,1005.1808291340001,1004.6743803269999,1005.1808291340001,None,None,down,2.626521457999843,1005.9805312209999,None,None,None,z,0.4622733619999053,1008.6728048429998,None,1009.1793092350001,None,,38,17,25,,,,,108,23,2022_Sep_21_1237,templeton_exp2A_SD,2020.2.10,37.51375488713102,
,,,,,,,,,,,,,,,,,,,,,,67,0,67,0,,,,,,,,,,,,,,,,,,,,,,,,2.9000000000000004,1.6,2.9000000000000004,,,,,,,,,,,,,,,,,,,,,,,,,,,,,,,,,,,67,976.7666424509998,1,8,3,9,0,7,2,6,0,0,5,1009.7657591509999,None,1,8,3,9,0,7,2,6,,1013.231116794,None,1013.231116794,None,1013.231116794,None,1013.231116794,None,1013.231116794,None,1013.231116794,None,1013.231116794,None,1013.231116794,None,1011.9249664470001,1012.4314163659999,1011.9249664470001,1012.4314163659999,1011.9249664470001,1012.4314163659999,None,None,left,1.4798989920000167,1013.231116794,None,None,None,z,0.21383417700008067,1014.7771408450001,None,1015.0437663549999,None,,39,18,26,,,,,108,23,2022_Sep_21_1237,templeton_exp2A_SD,2020.2.10,37.51375488713102,
,,,,,,,,,,,,,,,,,,,,,,68,0,68,0,,,,,,,,,,,,,,,,,,,,,,,,2.7,2.8000000000000003,3.3000000000000003,,,,,,,,,,,,,,,,,,,,,,,,,,,,,,,,,,,68,982.6292521279997,2,5,0,9,1,7,4,8,1,0,3,1015.616799137,None,2,5,0,9,1,7,4,8,,1018.882300811,None,1018.882300811,None,1018.882300811,None,1018.882300811,None,1018.882300811,None,1018.882300811,None,1018.882300811,None,1018.882300811,None,1018.9888521290002,1019.4953540129998,1018.9888521290002,1019.4953540129998,1018.9888521290002,1019.4953540129998,None,None,left,3.7142188619995977,1018.9888521290002,None,None,None,x,0.3369742650002081,1022.7740892720001,None,1023.1473481750002,None,,40,18,26,,,,,108,23,2022_Sep_21_1237,templeton_exp2A_SD,2020.2.10,37.51375488713102,
,,,,,,,,,,,,,,,,,,,,,,69,0,69,0,,,,,,,,,,,,,,,,,,,,,,,,3.1,3.2,3.7,,,,,,,,,,,,,,,,,,,,,,,,,,,,,,,,,,,69,990.7338470659997,1,7,2,9,3,6,4,5,1,1,0,1023.7338069959999,None,0,7,2,9,3,6,4,5,,1027.3991156700001,None,1027.3991156700001,None,1027.3991156700001,None,1027.3991156700001,None,1027.3991156700001,None,1027.3991156700001,None,1027.3991156700001,None,1027.3991156700001,None,1027.505660046,1028.012170879,1027.505660046,1028.012170879,1027.505660046,1028.012170879,None,None,left,4.709396261000165,1027.505660046,None,None,None,c,0.3779117900003257,1032.2771723150001,None,1032.7036881669999,None,,41,18,26,,,,,108,23,2022_Sep_21_1237,templeton_exp2A_SD,2020.2.10,37.51375488713102,
,,,,,,,,,,,,,,,,,,,,,,70,0,70,0,,,,,,,,,,,,,,,,,,,,,,,,2.9000000000000004,1.6,2.9000000000000004,,,,,,,,,,,,,,,,,,,,,,,,,,,,,,,,,,,70,1000.288939602,1,9,2,8,3,5,0,6,0,0,6,1033.2768025379999,None,1,9,2,8,3,5,0,6,,1036.728792018,None,1036.728792018,None,1036.728792018,None,1036.728792018,None,1036.728792018,None,1036.728792018,None,1036.728792018,None,1036.728792018,None,1035.449359512,1035.9558037210002,1035.449359512,1035.9558037210002,1035.449359512,1035.9558037210002,None,None,left,1.6462231270002121,1036.728792018,None,None,None,x,0.3401231530001496,1038.434906996,None,1038.808064862,None,,42,19,27,,,,,108,23,2022_Sep_21_1237,templeton_exp2A_SD,2020.2.10,37.51375488713102,
,,,,,,,,,,,,,,,,,,,,,,71,0,71,0,,,,,,,,,,,,,,,,,,,,,,,,2.7,2.8000000000000003,3.3000000000000003,,,,,,,,,,,,,,,,,,,,,,,,,,,,,,,,,,,71,1006.3949996619999,3,7,1,8,0,5,2,6,1,0,0,1039.394496997,None,3,7,1,8,0,5,2,6,,1042.6732970280002,None,1042.6732970280002,None,1042.6732970280002,None,1042.6732970280002,None,1042.6732970280002,None,1042.6732970280002,None,1042.6732970280002,None,1042.6732970280002,None,1042.753200719,1043.2596767940001,1042.753200719,1043.2596767940001,1042.753200719,1043.2596767940001,None,None,down,2.4778545920003126,1042.753200719,None,None,None,x,0.38545035200013444,1045.285627908,None,1045.7121305059998,None,,43,19,27,,,,,108,23,2022_Sep_21_1237,templeton_exp2A_SD,2020.2.10,37.51375488713102,
,,,,,,,,,,,,,,,,,,,,,,72,0,72,0,,,,,,,,,,,,,,,,,,,,,,,,3.1,3.2,3.7,,,,,,,,,,,,,,,,,,,,,,,,,,,,,,,,,,,72,1013.2966237619999,2,5,3,9,4,8,1,6,1,0,4,1046.285257283,None,2,5,3,9,4,8,1,6,,1049.950530725,None,1049.950530725,None,1049.950530725,None,1049.950530725,None,1049.950530725,None,1049.950530725,None,1049.950530725,None,1049.950530725,None,1050.030505213,1050.5369827709999,1050.030505213,1050.5369827709999,1050.030505213,1050.5369827709999,None,None,left,2.0885657680000804,1050.030505213,None,None,None,x,0.3294265049999012,1052.189652365,None,1052.5628832690002,None,,44,19,27,,,,,108,23,2022_Sep_21_1237,templeton_exp2A_SD,2020.2.10,37.51375488713102,
,,,,,,,,,,,,,,,,,,,,,,73,0,73,0,,,,,,,,,,,,,,,,,,,,,,,,2.9000000000000004,1.6,2.9000000000000004,,,,,,,,,,,,,,,,,,,,,,,,,,,,,,,,,,,73,1020.1506102919998,3,9,4,8,1,7,0,6,0,1,5,1053.1493233600002,None,3,9,4,8,1,2,0,6,,1056.601348677,None,1056.601348677,None,1056.601348677,None,1056.601348677,None,1056.601348677,None,1056.601348677,None,1056.601348677,None,1056.601348677,None,1055.321800759,1055.828375927,1055.321800759,1055.828375927,1055.321800759,1055.828375927,None,None,left,1.2057014020001589,1056.601348677,None,None,None,z,0.262279633000162,1057.8807987470002,None,1058.1740593480001,None,,45,19,28,,,,,108,23,2022_Sep_21_1237,templeton_exp2A_SD,2020.2.10,37.51375488713102,
,,,,,,,,,,,,,,,,,,,,,,74,0,74,0,,,,,,,,,,,,,,,,,,,,,,,,2.1,2.2,2.7,,,,,,,,,,,,,,,,,,,,,,,,,,,,,,,,,,,74,1025.7608490049997,2,7,4,9,0,8,3,6,1,1,1,1058.760490241,None,2,1,4,9,0,8,3,6,,1061.4128583059999,None,1061.4128583059999,None,1061.4128583059999,None,1061.4128583059999,None,1061.4128583059999,None,1061.4128583059999,None,1061.4128583059999,None,1061.4128583059999,None,1061.519486113,1062.025901529,1061.519486113,1062.025901529,1061.519486113,1062.025901529,None,None,down,2.2235341679997873,1061.519486113,None,None,None,x,0.259203639000134,1063.8118992010002,None,1064.1051686120002,None,,46,19,28,,,,,108,23,2022_Sep_21_1237,templeton_exp2A_SD,2020.2.10,37.51375488713102,
,,,,,,,,,,,,,,,,,,,,,,75,0,75,0,,,,,,,,,,,,,,,,,,,,,,,,2.7,2.8000000000000003,3.3000000000000003,,,,,,,,,,,,,,,,,,,,,,,,,,,,,,,,,,,75,1072.3275153199997,4,5,1,6,3,7,0,8,1,0,5,1105.3294622619999,None,4,5,1,6,3,7,0,8,,1108.6082669959999,None,1108.6082669959999,None,1108.6082669959999,None,1108.6082669959999,None,1108.6082669959999,None,1108.6082669959999,None,1108.6082669959999,None,1108.6082669959999,None,1108.6882811469998,1109.1947021140002,1108.6882811469998,1109.1947021140002,1108.6882811469998,1109.1947021140002,None,None,down,3.006773893999707,1108.6882811469998,None,None,None,z,0.38129284200022084,1111.7537848069999,None,1112.1802858180001,None,,47,19,28,,,,,108,23,2022_Sep_21_1237,templeton_exp2A_SD,2020.2.10,37.51375488713102,
,,,,,,,,,,,,,,,,,,,,,,76,0,76,0,,,,,,,,,,,,,,,,,,,,,,,,2.9000000000000004,1.6,2.9000000000000004,,,,,,,,,,,,,,,,,,,,,,,,,,,,,,,,,,,76,1079.7672533279997,2,7,3,8,4,5,1,6,0,0,5,1112.766729525,None,2,7,3,8,4,5,1,6,,1116.245377249,None,1116.245377249,None,1116.245377249,None,1116.245377249,None,1116.245377249,None,1116.245377249,None,1116.245377249,None,1116.245377249,None,1114.9391973939998,1115.44571075,1114.9391973939998,1115.44571075,1114.9391973939998,1115.44571075,None,None,left,0.865635366999868,1116.245377249,None,None,None,z,0.09260741099978986,1117.1783930660001,None,1117.3116410690002,None,,48,20,29,,,,,108,23,2022_Sep_21_1237,templeton_exp2A_SD,2020.2.10,37.51375488713102,
,,,,,,,,,,,,,,,,,,,,,,77,0,77,0,,,,,,,,,,,,,,,,,,,,,,,,1.9,2.0,2.5,,,,,,,,,,,,,,,,,,,,,,,,,,,,,,,,,,,77,1084.898729808,3,7,2,9,4,6,1,8,1,1,0,1117.8981273040001,None,0,7,2,9,4,6,1,8,,1120.377069247,None,1120.377069247,None,1120.377069247,None,1120.377069247,None,1120.377069247,None,1120.377069247,None,1120.377069247,None,1120.377069247,None,1120.4570006870001,1120.9635707149998,1120.4570006870001,1120.9635707149998,1120.4570006870001,1120.9635707149998,None,None,left,2.2460695370000394,1120.4570006870001,None,None,None,x,0.39090977800015025,1122.7761636769999,None,1123.202791897,None,,49,20,29,1,0.6896551724137931,0,,108,23,2022_Sep_21_1237,templeton_exp2A_SD,2020.2.10,37.51375488713102,
,,,,,,,,,,,,,,,,,,,,,,78,0,78,0,,,,,,,,,,,,,,,,,,,,,,,,3.5,3.6,4.1,,,,,,,,,,,,,,,,,,,,,,,,,,,,,,,,,,,78,1090.788369072,2,9,0,6,3,8,1,5,1,0,5,1123.775856935,None,2,9,0,6,3,8,1,5,,1127.840978415,None,1127.840978415,None,1127.840978415,None,1127.840978415,None,1127.840978415,None,1127.840978415,None,1127.840978415,None,1127.840978415,None,1127.9475958169999,1128.454150499,1127.9475958169999,1128.454150499,1127.9475958169999,1128.454150499,None,None,down,2.203499582999939,1127.9475958169999,None,None,None,x,0.33763423400023385,1130.2134431309998,None,1130.5866572849998,None,,0,0,0,,,,,108,23,2022_Sep_21_1237,templeton_exp2A_SD,2020.2.10,37.51375488713102,
,,,,,,,,,,,,,,,,,,,,,,79,0,79,0,,,,,,,,,,,,,,,,,,,,,,,,2.9000000000000004,1.6,2.9000000000000004,,,,,,,,,,,,,,,,,,,,,,,,,,,,,,,,,,,79,1098.174347776,0,7,1,6,3,8,4,9,0,0,3,1131.1731147540002,None,0,7,1,6,3,8,4,9,,1134.638408054,None,1134.638408054,None,1134.638408054,None,1134.638408054,None,1134.638408054,None,1134.638408054,None,1134.638408054,None,1134.638408054,None,1133.332277372,1133.8387043320001,1133.332277372,1133.8387043320001,1133.332277372,1133.8387043320001,None,None,down,4.4966482290001295,1134.638408054,None,None,None,x,0.386370519999673,1139.1967140959998,None,1139.623194821,None,,1,0,1,,,,,108,23,2022_Sep_21_1237,templeton_exp2A_SD,2020.2.10,37.51375488713102,
,,,,,,,,,,,,,,,,,,,,,,80,0,80,0,,,,,,,,,,,,,,,,,,,,,,,,2.9,3.0,3.5,,,,,,,,,,,,,,,,,,,,,,,,,,,,,,,,,,,80,1107.21013661,4,8,1,6,3,7,2,9,1,1,3,1140.209617104,None,4,8,1,0,3,7,2,9,,1143.6616533909998,None,1143.6616533909998,None,1143.6616533909998,None,1143.6616533909998,None,1143.6616533909998,None,1143.6616533909998,None,1143.6616533909998,None,1143.6616533909998,None,1143.768320759,1144.2747096320002,1143.768320759,1144.2747096320002,1143.768320759,1144.2747096320002,None,None,down,1.318712673000391,1143.768320759,None,None,None,z,0.18861765799965724,1145.154420488,None,1145.394318545,None,,2,0,1,,,,,108,23,2022_Sep_21_1237,templeton_exp2A_SD,2020.2.10,37.51375488713102,
,,,,,,,,,,,,,,,,,,,,,,81,0,81,0,,,,,,,,,,,,,,,,,,,,,,,,2.9000000000000004,1.6,2.9000000000000004,,,,,,,,,,,,,,,,,,,,,,,,,,,,,,,,,,,81,1112.9814981619998,2,6,1,7,0,9,3,5,0,1,5,1145.9807980980002,None,2,6,1,7,0,4,3,5,,1149.446127256,None,1149.446127256,None,1149.446127256,None,1149.446127256,None,1149.446127256,None,1149.446127256,None,1149.446127256,None,1149.446127256,None,1148.140017643,1148.6464692480001,1148.140017643,1148.6464692480001,1148.140017643,1148.6464692480001,None,None,down,2.3288852059999954,1149.446127256,None,None,None,z,0.2338085799997316,1151.845265828,None,1152.111783561,None,,3,1,2,,,,,108,23,2022_Sep_21_1237,templeton_exp2A_SD,2020.2.10,37.51375488713102,
,,,,,,,,,,,,,,,,,,,,,,82,0,82,0,,,,,,,,,,,,,,,,,,,,,,,,3.3000000000000003,3.4000000000000004,3.9000000000000004,,,,,,,,,,,,,,,,,,,,,,,,,,,,,,,,,,,82,1119.69681626,2,8,3,9,0,6,1,5,1,0,7,1152.684952247,None,2,8,3,9,0,6,1,5,,1156.5368184779998,None,1156.5368184779998,None,1156.5368184779998,None,1156.5368184779998,None,1156.5368184779998,None,1156.5368184779998,None,1156.5368184779998,None,1156.5368184779998,None,1156.643389645,1157.149919695,1156.643389645,1157.149919695,1156.643389645,1157.149919695,None,None,left,3.171679573000347,1156.643389645,None,None,None,x,0.3781838350000726,1159.868881918,None,1160.295379776,None,,4,1,2,,,,,108,23,2022_Sep_21_1237,templeton_exp2A_SD,2020.2.10,37.51375488713102,
,,,,,,,,,,,,,,,,,,,,,,83,0,83,0,,,,,,,,,,,,,,,,,,,,,,,,2.9000000000000004,1.6,2.9000000000000004,,,,,,,,,,,,,,,,,,,,,,,,,,,,,,,,,,,83,1127.882379882,3,6,1,8,2,5,0,7,0,1,0,1160.881832623,None,4,6,1,8,2,5,0,7,,1164.3471905140002,None,1164.3471905140002,None,1164.3471905140002,None,1164.3471905140002,None,1164.3471905140002,None,1164.3471905140002,None,1164.3471905140002,None,1164.3471905140002,None,1163.040939403,1163.547478523,1163.040939403,1163.547478523,1163.040939403,1163.547478523,None,None,down,1.4519115969997074,1164.3471905140002,None,None,None,x,0.5164584560002368,1165.8666021790002,None,1166.4263491149998,None,,5,2,3,,,,,108,23,2022_Sep_21_1237,templeton_exp2A_SD,2020.2.10,37.51375488713102,
,,,,,,,,,,,,,,,,,,,,,,84,0,84,0,,,,,,,,,,,,,,,,,,,,,,,,2.3000000000000003,2.4000000000000004,2.9000000000000004,,,,,,,,,,,,,,,,,,,,,,,,,,,,,,,,,,,84,1134.0140576439999,2,6,1,7,4,9,0,8,1,0,3,1167.0128074279999,None,2,6,1,7,4,9,0,8,,1169.8917774939998,None,1169.8917774939998,None,1169.8917774939998,None,1169.8917774939998,None,1169.8917774939998,None,1169.8917774939998,None,1169.8917774939998,None,1169.8917774939998,None,1169.9716905019998,1170.4781964759998,1169.9716905019998,1170.4781964759998,1169.9716905019998,1170.4781964759998,None,None,down,1.5873675649995675,1169.9716905019998,None,None,None,z,0.35070552200022576,1171.6243595160001,None,1172.024176492,None,,6,2,3,,,,,108,23,2022_Sep_21_1237,templeton_exp2A_SD,2020.2.10,37.51375488713102,
,,,,,,,,,,,,,,,,,,,,,,85,0,85,0,,,,,,,,,,,,,,,,,,,,,,,,2.9000000000000004,1.6,2.9000000000000004,,,,,,,,,,,,,,,,,,,,,,,,,,,,,,,,,,,85,1139.611358321,2,9,0,7,1,5,3,6,0,0,6,1172.6106469099998,None,2,9,0,7,1,5,3,6,,1176.0893620169998,None,1176.0893620169998,None,1176.0893620169998,None,1176.0893620169998,None,1176.0893620169998,None,1176.0893620169998,None,1176.0893620169998,None,1176.0893620169998,None,1174.783214746,1175.2896889400001,1174.783214746,1175.2896889400001,1174.783214746,1175.2896889400001,1183.180056418,None,left,7.205702057000053,1176.0893620169998,None,None,None,z,0.7443734200001018,1183.366653501,None,1184.139607638,None,,7,3,4,,,,,108,23,2022_Sep_21_1237,templeton_exp2A_SD,2020.2.10,37.51375488713102,
,,,,,,,,,,,,,,,,,,,,,,86,0,86,0,,,,,,,,,,,,,,,,,,,,,,,,2.9000000000000004,1.6,2.9000000000000004,,,,,,,,,,,,,,,,,,,,,,,,,,,,,,,,,,,86,1151.72730352,4,9,1,6,0,7,3,8,0,1,1,1184.726127838,None,4,2,1,6,0,7,3,8,,1188.1914329640001,None,1188.1914329640001,None,1188.1914329640001,None,1188.1914329640001,None,1188.1914329640001,None,1188.1914329640001,None,1188.1914329640001,None,1188.1914329640001,None,1186.8853109469999,1187.391716673,1186.8853109469999,1187.391716673,1186.8853109469999,1187.391716673,None,None,down,1.3595335519999026,1188.1914329640001,None,None,None,z,0.35475375499981965,1189.604313567,None,1190.0041563890002,None,,8,4,5,,,,,108,23,2022_Sep_21_1237,templeton_exp2A_SD,2020.2.10,37.51375488713102,
,,,,,,,,,,,,,,,,,,,,,,87,0,87,0,,,,,,,,,,,,,,,,,,,,,,,,2.9000000000000004,1.6,2.9000000000000004,,,,,,,,,,,,,,,,,,,,,,,,,,,,,,,,,,,87,1157.589238732,0,7,1,5,3,8,2,9,0,1,0,1190.5772431009998,None,4,7,1,5,3,8,2,9,,1194.029227455,None,1194.029227455,None,1194.029227455,None,1194.029227455,None,1194.029227455,None,1194.029227455,None,1194.029227455,None,1194.029227455,None,1192.7230346539998,1193.229538361,1192.7230346539998,1193.229538361,1192.7230346539998,1193.229538361,None,None,down,4.657830239999839,1194.029227455,None,None,None,c,0.4195800100001179,1198.7474816430001,None,1199.200649533,None,,9,5,6,,,,,108,23,2022_Sep_21_1237,templeton_exp2A_SD,2020.2.10,37.51375488713102,
,,,,,,,,,,,,,,,,,,,,,,88,0,88,0,,,,,,,,,,,,,,,,,,,,,,,,3.1,3.2,3.7,,,,,,,,,,,,,,,,,,,,,,,,,,,,,,,,,,,88,1166.7881995819998,0,6,1,7,2,9,4,8,1,0,4,1199.7870474959998,None,0,6,1,7,2,9,4,8,,1203.465647494,None,1203.465647494,None,1203.465647494,None,1203.465647494,None,1203.465647494,None,1203.465647494,None,1203.465647494,None,1203.465647494,None,1203.5456297520002,1204.052135906,1203.5456297520002,1204.052135906,1203.5456297520002,1204.052135906,None,None,left,3.7094284629997674,1203.5456297520002,None,None,None,x,0.35628491599982226,1207.330815642,None,1207.730713752,None,,10,5,6,,,,,108,23,2022_Sep_21_1237,templeton_exp2A_SD,2020.2.10,37.51375488713102,
,,,,,,,,,,,,,,,,,,,,,,89,0,89,0,,,,,,,,,,,,,,,,,,,,,,,,2.9000000000000004,1.6,2.9000000000000004,,,,,,,,,,,,,,,,,,,,,,,,,,,,,,,,,,,89,1175.3154798749997,1,6,3,8,2,9,4,5,0,0,1,1208.303865911,None,1,6,3,8,2,9,4,5,,1211.755845037,None,1211.755845037,None,1211.755845037,None,1211.755845037,None,1211.755845037,None,1211.755845037,None,1211.755845037,None,1211.755845037,None,1210.4496635490002,1210.9561540759998,1210.4496635490002,1210.9561540759998,1210.4496635490002,1210.9561540759998,None,None,left,1.5631998849999036,1211.755845037,None,None,None,z,0.7930815360000452,1213.3819426439998,None,1214.208253295,None,,11,6,7,,,,,108,23,2022_Sep_21_1237,templeton_exp2A_SD,2020.2.10,37.51375488713102,
,,,,,,,,,,,,,,,,,,,,,,90,0,90,0,,,,,,,,,,,,,,,,,,,,,,,,2.9000000000000004,1.6,2.9000000000000004,,,,,,,,,,,,,,,,,,,,,,,,,,,,,,,,,,,90,1217.2572972429998,0,6,1,9,4,8,2,5,0,0,3,1250.247985925,None,0,6,1,9,4,8,2,5,,1253.6999905619998,None,1253.6999905619998,None,1253.6999905619998,None,1253.6999905619998,None,1253.6999905619998,None,1253.6999905619998,None,1253.6999905619998,None,1253.6999905619998,None,1252.420476391,1252.9269080870001,1252.420476391,1252.9269080870001,1252.420476391,1252.9269080870001,None,None,left,1.45905945100003,1253.6999905619998,None,None,None,z,0.2676524159996916,1255.2194183600002,None,1255.539263454,None,,12,7,8,,,,,108,23,2022_Sep_21_1237,templeton_exp2A_SD,2020.2.10,37.51375488713102,
,,,,,,,,,,,,,,,,,,,,,,91,0,91,0,,,,,,,,,,,,,,,,,,,,,,,,2.3000000000000003,2.4000000000000004,2.9000000000000004,,,,,,,,,,,,,,,,,,,,,,,,,,,,,,,,,,,91,1223.1272661929997,2,5,1,9,4,7,0,6,1,1,1,1256.12570746,None,2,3,1,9,4,7,0,6,,1259.004680701,None,1259.004680701,None,1259.004680701,None,1259.004680701,None,1259.004680701,None,1259.004680701,None,1259.004680701,None,1259.004680701,None,1259.0846281020001,1259.5911258089998,1259.0846281020001,1259.5911258089998,1259.0846281020001,1259.5911258089998,None,None,down,2.082428062999952,1259.0846281020001,None,None,None,x,0.3872621719997369,1261.2438197059998,None,1261.6703238470002,None,,13,7,8,,,,,108,23,2022_Sep_21_1237,templeton_exp2A_SD,2020.2.10,37.51375488713102,
,,,,,,,,,,,,,,,,,,,,,,92,0,92,0,,,,,,,,,,,,,,,,,,,,,,,,2.9000000000000004,1.6,2.9000000000000004,,,,,,,,,,,,,,,,,,,,,,,,,,,,,,,,,,,92,1229.2579801749998,4,8,3,5,0,6,1,7,0,1,4,1262.2567473800002,None,4,8,3,5,2,6,1,7,,1265.708762301,None,1265.708762301,None,1265.708762301,None,1265.708762301,None,1265.708762301,None,1265.708762301,None,1265.708762301,None,1265.708762301,None,1264.429216443,1264.9357420449999,1264.429216443,1264.9357420449999,1264.429216443,1264.9357420449999,None,None,down,1.5782854170001883,1265.708762301,None,None,None,z,0.4616290690000824,1267.361447132,None,1267.867888052,None,,14,8,9,,,,,108,23,2022_Sep_21_1237,templeton_exp2A_SD,2020.2.10,37.51375488713102,
,,,,,,,,,,,,,,,,,,,,,,93,0,93,0,,,,,,,,,,,,,,,,,,,,,,,,2.9000000000000004,1.6,2.9000000000000004,,,,,,,,,,,,,,,,,,,,,,,,,,,,,,,,,,,93,1235.4525938709999,2,5,4,8,3,6,1,9,0,1,0,1268.44100057,None,0,5,4,8,3,6,1,9,,1271.8930662649998,None,1271.8930662649998,None,1271.8930662649998,None,1271.8930662649998,None,1271.8930662649998,None,1271.8930662649998,None,1271.8930662649998,None,1271.8930662649998,None,1270.613585538,1271.1200554149998,1270.613585538,1271.1200554149998,1270.613585538,1271.1200554149998,None,None,down,2.2099943489997713,1271.8930662649998,None,None,None,c,0.39218306800012215,1274.158895929,None,1274.5854149969998,None,,15,9,10,,,,,108,23,2022_Sep_21_1237,templeton_exp2A_SD,2020.2.10,37.51375488713102,
,,,,,,,,,,,,,,,,,,,,,,94,0,94,0,,,,,,,,,,,,,,,,,,,,,,,,3.3000000000000003,3.4000000000000004,3.9000000000000004,,,,,,,,,,,,,,,,,,,,,,,,,,,,,,,,,,,94,1242.1725948949997,1,7,0,5,2,6,4,9,1,1,1,1275.171817703,None,1,3,0,5,2,6,4,9,,1279.0237353109999,None,1279.0237353109999,None,1279.0237353109999,None,1279.0237353109999,None,1279.0237353109999,None,1279.0237353109999,None,1279.0237353109999,None,1279.0237353109999,None,1279.1303510340001,1279.636830405,1279.1303510340001,1279.636830405,1279.1303510340001,1279.636830405,1285.741206379,None,left,10.740742523000335,1279.1303510340001,None,None,None,x,0.3448949469998297,1289.926227614,None,1290.2994251879998,None,,16,9,10,,,,,108,23,2022_Sep_21_1237,templeton_exp2A_SD,2020.2.10,37.51375488713102,
,,,,,,,,,,,,,,,,,,,,,,95,0,95,0,,,,,,,,,,,,,,,,,,,,,,,,1.9,2.0,2.5,,,,,,,,,,,,,,,,,,,,,,,,,,,,,,,,,,,95,1257.885158731,0,8,3,5,1,9,2,6,1,0,2,1290.8726028429999,None,0,8,3,5,1,9,2,6,,1293.338240233,None,1293.338240233,None,1293.338240233,None,1293.338240233,None,1293.338240233,None,1293.338240233,None,1293.338240233,None,1293.338240233,None,1293.444887717,1293.951407584,1293.444887717,1293.951407584,1293.444887717,1293.951407584,None,None,left,2.4981719459997294,1293.444887717,None,None,None,z,0.4270024460001878,1296.003972064,None,1296.4837498670001,None,,17,9,10,,,,,108,23,2022_Sep_21_1237,templeton_exp2A_SD,2020.2.10,37.51375488713102,
,,,,,,,,,,,,,,,,,,,,,,96,0,96,0,,,,,,,,,,,,,,,,,,,,,,,,1.9,2.0,2.5,,,,,,,,,,,,,,,,,,,,,,,,,,,,,,,,,,,96,1264.0712558689997,4,5,3,6,0,7,1,8,1,1,6,1297.0702260249998,None,4,5,3,6,0,7,2,8,,1299.535956034,None,1299.535956034,None,1299.535956034,None,1299.535956034,None,1299.535956034,None,1299.535956034,None,1299.535956034,None,1299.535956034,None,1299.6426159229998,1300.1488307349998,1299.6426159229998,1300.1488307349998,1299.6426159229998,1300.1488307349998,None,None,down,2.700442250999913,1299.6426159229998,None,None,None,z,0.27219424600025377,1302.4148691799999,None,1302.7347510299999,None,,18,9,10,,,,,108,23,2022_Sep_21_1237,templeton_exp2A_SD,2020.2.10,37.51375488713102,
,,,,,,,,,,,,,,,,,,,,,,97,0,97,0,,,,,,,,,,,,,,,,,,,,,,,,2.9000000000000004,1.6,2.9000000000000004,,,,,,,,,,,,,,,,,,,,,,,,,,,,,,,,,,,97,1270.3186751829999,4,5,0,9,3,8,2,6,0,1,3,1303.307792922,None,4,5,0,1,3,8,2,6,,1306.75994741,None,1306.75994741,None,1306.75994741,None,1306.75994741,None,1306.75994741,None,1306.75994741,None,1306.75994741,None,1306.75994741,None,1305.480266503,1305.986864403,1305.480266503,1305.986864403,1305.480266503,1305.986864403,None,None,left,5.415102498999659,1306.75994741,None,None,None,x,0.41198101700001644,1312.251095296,None,1312.7042824930002,None,,19,9,11,,,,,108,23,2022_Sep_21_1237,templeton_exp2A_SD,2020.2.10,37.51375488713102,
,,,,,,,,,,,,,,,,,,,,,,98,0,98,0,,,,,,,,,,,,,,,,,,,,,,,,3.5,3.6,4.1,,,,,,,,,,,,,,,,,,,,,,,,,,,,,,,,,,,98,1280.2901452389997,3,7,2,5,4,6,0,9,1,1,6,1313.2774131079998,None,3,7,2,5,4,6,1,9,,1317.342548934,None,1317.342548934,None,1317.342548934,None,1317.342548934,None,1317.342548934,None,1317.342548934,None,1317.342548934,None,1317.342548934,None,1317.4491256590002,1317.955474487,1317.4491256590002,1317.955474487,1317.4491256590002,1317.955474487,1323.846747283,None,left,10.445929366999735,1317.4491256590002,None,None,None,x,0.35918917399976635,1327.951837595,None,1328.3517133520002,None,,20,9,11,,,,,108,23,2022_Sep_21_1237,templeton_exp2A_SD,2020.2.10,37.51375488713102,
,,,,,,,,,,,,,,,,,,,,,,99,0,99,0,,,,,,,,,,,,,,,,,,,,,,,,2.9000000000000004,1.6,2.9000000000000004,,,,,,,,,,,,,,,,,,,,,,,,,,,,,,,,,,,99,1295.9353235479998,0,9,2,7,3,5,4,8,0,0,3,1328.924782059,None,0,9,2,7,3,5,4,8,,1332.3768135550001,None,1332.3768135550001,None,1332.3768135550001,None,1332.3768135550001,None,1332.3768135550001,None,1332.3768135550001,None,1332.3768135550001,None,1332.3768135550001,None,1331.070642244,1331.5771485449998,1331.070642244,1331.5771485449998,1331.070642244,1331.5771485449998,None,None,left,1.4382456000003003,1332.3768135550001,None,None,None,z,0.3054434669998045,1333.8696253249998,None,1334.216151597,None,,21,10,12,,,,,108,23,2022_Sep_21_1237,templeton_exp2A_SD,2020.2.10,37.51375488713102,
,,,,,,,,,,,,,,,,,,,,,,100,0,100,0,,,,,,,,,,,,,,,,,,,,,,,,1.5,1.6,2.1,,,,,,,,,,,,,,,,,,,,,,,,,,,,,,,,,,,100,1301.802354291,3,7,2,6,4,5,0,8,1,0,7,1334.8026027570002,None,3,7,2,6,4,5,0,8,,1336.868483738,None,1336.868483738,None,1336.868483738,None,1336.868483738,None,1336.868483738,None,1336.868483738,None,1336.868483738,None,1336.868483738,None,1336.9750277629998,1337.4815338740002,1336.9750277629998,1337.4815338740002,1336.9750277629998,1337.4815338740002,None,None,left,1.7120287210000242,1336.9750277629998,None,None,None,z,0.390055731999837,1338.7610229620002,None,1339.1876087550002,None,,22,10,12,,,,,108,23,2022_Sep_21_1237,templeton_exp2A_SD,2020.2.10,37.51375488713102,
,,,,,,,,,,,,,,,,,,,,,,101,0,101,0,,,,,,,,,,,,,,,,,,,,,,,,1.7,1.8,2.3,,,,,,,,,,,,,,,,,,,,,,,,,,,,,,,,,,,101,1306.774622155,2,9,1,5,3,7,0,6,1,0,6,1339.7740686509999,None,2,9,1,5,3,7,0,6,,1342.0398523000001,None,1342.0398523000001,None,1342.0398523000001,None,1342.0398523000001,None,1342.0398523000001,None,1342.0398523000001,None,1342.0398523000001,None,1342.0398523000001,None,1342.1464449879998,1342.652958076,1342.1464449879998,1342.652958076,1342.1464449879998,1342.652958076,None,None,left,1.4445770179995634,1342.1464449879998,None,None,None,z,0.3172051169999577,1343.665869104,None,1344.012442086,None,,23,10,12,,,,,108,23,2022_Sep_21_1237,templeton_exp2A_SD,2020.2.10,37.51375488713102,
,,,,,,,,,,,,,,,,,,,,,,102,0,102,0,,,,,,,,,,,,,,,,,,,,,,,,2.9000000000000004,1.6,2.9000000000000004,,,,,,,,,,,,,,,,,,,,,,,,,,,,,,,,,,,102,1311.597059269,1,8,2,5,3,7,4,9,0,0,7,1344.585573099,None,1,8,2,5,3,7,4,9,,1348.0375862079998,None,1348.0375862079998,None,1348.0375862079998,None,1348.0375862079998,None,1348.0375862079998,None,1348.0375862079998,None,1348.0375862079998,None,1348.0375862079998,None,1346.731412809,1347.2378885659998,1346.731412809,1347.2378885659998,1346.731412809,1347.2378885659998,None,None,left,0.9534817259996089,1348.0375862079998,None,None,None,z,0.34049604299980274,1349.0505340339998,None,1349.4236460660002,None,,24,11,13,,,,,108,23,2022_Sep_21_1237,templeton_exp2A_SD,2020.2.10,37.51375488713102,
,,,,,,,,,,,,,,,,,,,,,,103,0,103,0,,,,,,,,,,,,,,,,,,,,,,,,2.9000000000000004,1.6,2.9000000000000004,,,,,,,,,,,,,,,,,,,,,,,,,,,,,,,,,,,103,1317.010969899,2,7,0,9,1,8,4,6,0,0,6,1350.0101137929998,None,2,7,0,9,1,8,4,6,,1353.475455694,None,1353.475455694,None,1353.475455694,None,1353.475455694,None,1353.475455694,None,1353.475455694,None,1353.475455694,None,1353.475455694,None,1352.1693460660001,1352.675818806,1352.1693460660001,1352.675818806,1352.1693460660001,1352.675818806,None,None,left,0.7716044030003104,1353.475455694,None,None,None,z,0.3612072719997741,1354.3018715599999,None,1354.7017307059998,None,,25,12,14,,,,,108,23,2022_Sep_21_1237,templeton_exp2A_SD,2020.2.10,37.51375488713102,
,,,,,,,,,,,,,,,,,,,,,,104,0,104,0,,,,,,,,,,,,,,,,,,,,,,,,1.9,2.0,2.5,,,,,,,,,,,,,,,,,,,,,,,,,,,,,,,,,,,104,1322.2876031359997,3,9,0,6,2,8,4,7,1,1,2,1355.288187583,None,3,9,1,6,2,8,4,7,,1357.767227173,None,1357.767227173,None,1357.767227173,None,1357.767227173,None,1357.767227173,None,1357.767227173,None,1357.767227173,None,1357.767227173,None,1357.8471973829999,1358.353618111,1357.8471973829999,1358.353618111,1357.8471973829999,1358.353618111,None,None,down,1.695862553999632,1357.8471973829999,None,None,None,z,0.2646069309998893,1359.606488964,None,1359.899715324,None,,26,12,14,,,,,108,23,2022_Sep_21_1237,templeton_exp2A_SD,2020.2.10,37.51375488713102,
,,,,,,,,,,,,,,,,,,,,,,105,0,105,0,,,,,,,,,,,,,,,,,,,,,,,,3.5,3.6,4.1,,,,,,,,,,,,,,,,,,,,,,,,,,,,,,,,,,,105,1342.902945927,2,6,4,5,3,7,1,9,1,1,2,1375.893704248,None,2,6,0,5,3,7,1,9,,1379.9721117709998,None,1379.9721117709998,None,1379.9721117709998,None,1379.9721117709998,None,1379.9721117709998,None,1379.9721117709998,None,1379.9721117709998,None,1379.9721117709998,None,1380.052122635,1380.558504249,1380.052122635,1380.558504249,1380.052122635,1380.558504249,None,None,down,4.402937565999764,1380.052122635,None,None,None,x,0.5006504790003419,1384.5304111039998,None,1385.0635482999999,None,,27,12,14,,,,,108,23,2022_Sep_21_1237,templeton_exp2A_SD,2020.2.10,37.51375488713102,
,,,,,,,,,,,,,,,,,,,,,,106,0,106,0,,,,,,,,,,,,,,,,,,,,,,,,2.9000000000000004,1.6,2.9000000000000004,,,,,,,,,,,,,,,,,,,,,,,,,,,,,,,,,,,106,1352.6481897519998,0,9,3,6,4,5,2,8,0,1,3,1385.636668642,None,0,9,3,1,4,5,2,8,,1389.088653485,None,1389.088653485,None,1389.088653485,None,1389.088653485,None,1389.088653485,None,1389.088653485,None,1389.088653485,None,1389.088653485,None,1387.782517211,1388.2889963659998,1387.782517211,1388.2889963659998,1387.782517211,1388.2889963659998,None,None,down,1.73440770399975,1389.088653485,None,None,None,z,0.2737121660002231,1390.901349649,None,1391.221237646,None,,28,13,15,,,,,108,23,2022_Sep_21_1237,templeton_exp2A_SD,2020.2.10,37.51375488713102,
,,,,,,,,,,,,,,,,,,,,,,107,0,107,0,,,,,,,,,,,,,,,,,,,,,,,,2.9000000000000004,1.6,2.9000000000000004,,,,,,,,,,,,,,,,,,,,,,,,,,,,,,,,,,,107,1358.808339797,2,6,1,7,3,8,4,9,0,1,1,1391.807629995,None,2,0,1,7,3,8,4,9,,1395.2596527839999,None,1395.2596527839999,None,1395.2596527839999,None,1395.2596527839999,None,1395.2596527839999,None,1395.2596527839999,None,1395.2596527839999,None,1395.2596527839999,None,1393.9535142050001,1394.459958706,1393.9535142050001,1394.459958706,1393.9535142050001,1394.459958706,None,None,down,0.9073023129999456,1395.2596527839999,None,None,None,z,0.26509211700022206,1396.245974528,None,1396.5391663889998,None,,29,14,16,,,,,108,23,2022_Sep_21_1237,templeton_exp2A_SD,2020.2.10,37.51375488713102,
,,,,,,,,,,,,,,,,,,,,,,108,0,108,0,,,,,,,,,,,,,,,,,,,,,,,,2.9000000000000004,1.6,2.9000000000000004,,,,,,,,,,,,,,,,,,,,,,,,,,,,,,,,,,,108,1364.125741807,3,8,0,7,4,9,2,6,0,0,3,1397.1255907839998,None,3,8,0,7,4,9,2,6,,1400.577672659,None,1400.577672659,None,1400.577672659,None,1400.577672659,None,1400.577672659,None,1400.577672659,None,1400.577672659,None,1400.577672659,None,1399.2981493290001,1399.8046519900001,1399.2981493290001,1399.8046519900001,1399.2981493290001,1399.8046519900001,None,None,left,1.3253844529999697,1400.577672659,None,None,None,z,0.36324377099981575,1401.9638163299999,None,1402.3636676919998,None,,30,15,17,,,,,108,23,2022_Sep_21_1237,templeton_exp2A_SD,2020.2.10,37.51375488713102,
,,,,,,,,,,,,,,,,,,,,,,109,0,109,0,,,,,,,,,,,,,,,,,,,,,,,,2.9,3.0,3.5,,,,,,,,,,,,,,,,,,,,,,,,,,,,,,,,,,,109,1369.950744572,3,6,0,8,2,5,1,7,1,0,7,1402.950102772,None,3,6,0,8,2,5,1,7,,1406.415460173,None,1406.415460173,None,1406.415460173,None,1406.415460173,None,1406.415460173,None,1406.415460173,None,1406.415460173,None,1406.415460173,None,1406.5220978969999,1407.028473532,1406.5220978969999,1407.028473532,1406.5220978969999,1407.028473532,None,None,left,4.300968521999948,1406.5220978969999,None,None,None,x,0.3133558639997318,1410.893719216,None,1411.2402185130002,None,,31,15,17,,,,,108,23,2022_Sep_21_1237,templeton_exp2A_SD,2020.2.10,37.51375488713102,
,,,,,,,,,,,,,,,,,,,,,,110,0,110,0,,,,,,,,,,,,,,,,,,,,,,,,2.9000000000000004,1.6,2.9000000000000004,,,,,,,,,,,,,,,,,,,,,,,,,,,,,,,,,,,110,1378.826423563,3,7,1,9,2,6,4,5,0,1,3,1411.8267115239998,None,3,7,1,0,2,6,4,5,,1415.291979376,None,1415.291979376,None,1415.291979376,None,1415.291979376,None,1415.291979376,None,1415.291979376,None,1415.291979376,None,1415.291979376,None,1413.985881582,1414.4923539590002,1413.985881582,1414.4923539590002,1413.985881582,1414.4923539590002,None,None,down,1.1230654900000445,1415.291979376,None,None,None,z,0.2914315159996477,1416.4916275930002,None,1416.8114761549998,None,,32,16,18,,,,,108,23,2022_Sep_21_1237,templeton_exp2A_SD,2020.2.10,37.51375488713102,
,,,,,,,,,,,,,,,,,,,,,,111,0,111,0,,,,,,,,,,,,,,,,,,,,,,,,2.9000000000000004,1.6,2.9000000000000004,,,,,,,,,,,,,,,,,,,,,,,,,,,,,,,,,,,111,1384.3956179859997,2,9,3,8,0,7,4,5,0,1,7,1417.3846315419999,None,2,9,3,8,0,7,4,1,,1420.8366601189998,None,1420.8366601189998,None,1420.8366601189998,None,1420.8366601189998,None,1420.8366601189998,None,1420.8366601189998,None,1420.8366601189998,None,1420.8366601189998,None,1419.557117083,1420.0636272640002,1419.557117083,1420.0636272640002,1419.557117083,1420.0636272640002,None,None,down,2.7144021240001166,1420.8366601189998,None,None,None,x,0.4301292509999257,1423.608938085,None,1424.0887076850001,None,,33,17,19,,,,,108,23,2022_Sep_21_1237,templeton_exp2A_SD,2020.2.10,37.51375488713102,
,,,,,,,,,,,,,,,,,,,,,,112,0,112,0,,,,,,,,,,,,,,,,,,,,,,,,3.1,3.2,3.7,,,,,,,,,,,,,,,,,,,,,,,,,,,,,,,,,,,112,1391.675647305,1,7,3,6,0,9,2,5,1,0,5,1424.6751525930001,None,1,7,3,6,0,9,2,5,,1428.3538119379998,None,1428.3538119379998,None,1428.3538119379998,None,1428.3538119379998,None,1428.3538119379998,None,1428.3538119379998,None,1428.3538119379998,None,1428.3538119379998,None,1428.4337621910001,1428.9402206050001,1428.4337621910001,1428.9402206050001,1428.4337621910001,1428.9402206050001,None,None,left,1.6852979619998223,1428.4337621910001,None,None,None,z,0.2540083109997795,1430.1930730769998,None,1430.4863558620002,None,,34,17,19,,,,,108,23,2022_Sep_21_1237,templeton_exp2A_SD,2020.2.10,37.51375488713102,
,,,,,,,,,,,,,,,,,,,,,,113,0,113,0,,,,,,,,,,,,,,,,,,,,,,,,2.9000000000000004,1.6,2.9000000000000004,,,,,,,,,,,,,,,,,,,,,,,,,,,,,,,,,,,113,1398.07272057,0,6,2,7,3,9,4,8,0,1,1,1431.0727020809998,None,0,1,2,7,3,9,4,8,,1434.5247699129998,None,1434.5247699129998,None,1434.5247699129998,None,1434.5247699129998,None,1434.5247699129998,None,1434.5247699129998,None,1434.5247699129998,None,1434.5247699129998,None,1433.2452561100001,1433.751770771,1433.2452561100001,1433.751770771,1433.2452561100001,1433.751770771,None,None,down,2.594289118999768,1434.5247699129998,None,None,None,c,0.37663542900008906,1437.1904303539998,None,1437.616939543,None,,35,18,20,,,,,108,23,2022_Sep_21_1237,templeton_exp2A_SD,2020.2.10,37.51375488713102,
,,,,,,,,,,,,,,,,,,,,,,114,0,114,0,,,,,,,,,,,,,,,,,,,,,,,,1.7,1.8,2.3,,,,,,,,,,,,,,,,,,,,,,,,,,,,,,,,,,,114,1405.2046702339999,0,7,3,6,4,8,1,9,1,1,1,1438.203423744,None,0,2,3,6,4,8,1,9,,1440.455840543,None,1440.455840543,None,1440.455840543,None,1440.455840543,None,1440.455840543,None,1440.455840543,None,1440.455840543,None,1440.455840543,None,1440.562487291,1441.0689970689998,1440.562487291,1441.0689970689998,1440.562487291,1441.0689970689998,1448.772706994,None,down,13.004567185000269,1440.562487291,None,None,None,x,0.3908210719996532,1453.624257144,None,1454.0507621519998,None,,36,18,20,,,,,108,23,2022_Sep_21_1237,templeton_exp2A_SD,2020.2.10,37.51375488713102,
,,,,,,,,,,,,,,,,,,,,,,115,0,115,0,,,,,,,,,,,,,,,,,,,,,,,,2.9000000000000004,1.6,2.9000000000000004,,,,,,,,,,,,,,,,,,,,,,,,,,,,,,,,,,,115,1421.6385188999998,3,7,4,6,0,8,1,9,0,1,4,1454.637196669,None,3,7,4,6,2,8,1,9,,1458.1025503939998,None,1458.1025503939998,None,1458.1025503939998,None,1458.1025503939998,None,1458.1025503939998,None,1458.1025503939998,None,1458.1025503939998,None,1458.1025503939998,None,1456.7963344490001,1457.302844219,1456.7963344490001,1457.302844219,1456.7963344490001,1457.302844219,None,None,left,1.360403671000313,1458.1025503939998,None,None,None,x,0.3131117880002421,1459.5419657,None,1459.888525703,None,,37,18,21,,,,,108,23,2022_Sep_21_1237,templeton_exp2A_SD,2020.2.10,37.51375488713102,
,,,,,,,,,,,,,,,,,,,,,,116,0,116,0,,,,,,,,,,,,,,,,,,,,,,,,2.9000000000000004,1.6,2.9000000000000004,,,,,,,,,,,,,,,,,,,,,,,,,,,,,,,,,,,116,1427.4739676619997,1,8,2,9,0,7,4,5,0,0,7,1460.4616562550002,None,1,8,2,9,0,7,4,5,,1463.913677056,None,1463.913677056,None,1463.913677056,None,1463.913677056,None,1463.913677056,None,1463.913677056,None,1463.913677056,None,1463.913677056,None,1462.6341603919998,1463.140599102,1462.6341603919998,1463.140599102,1462.6341603919998,1463.140599102,None,None,left,3.8693716610000592,1463.913677056,None,None,None,x,0.31626339000013104,1467.85876505,None,1468.205383359,None,,38,19,22,,,,,108,23,2022_Sep_21_1237,templeton_exp2A_SD,2020.2.10,37.51375488713102,
,,,,,,,,,,,,,,,,,,,,,,117,0,117,0,,,,,,,,,,,,,,,,,,,,,,,,3.5,3.6,4.1,,,,,,,,,,,,,,,,,,,,,,,,,,,,,,,,,,,117,1435.792290066,3,7,1,8,2,9,4,6,1,0,5,1468.791716897,None,3,7,1,8,2,9,4,6,,1472.870284116,None,1472.870284116,None,1472.870284116,None,1472.870284116,None,1472.870284116,None,1472.870284116,None,1472.870284116,None,1472.870284116,None,1472.950253927,1473.456651063,1472.950253927,1473.456651063,1472.950253927,1473.456651063,None,None,down,1.4407216159997915,1472.950253927,None,None,None,z,0.377383287000157,1474.4696817249999,None,1474.896094475,None,,39,19,22,,,,,108,23,2022_Sep_21_1237,templeton_exp2A_SD,2020.2.10,37.51375488713102,
,,,,,,,,,,,,,,,,,,,,,,118,0,118,0,,,,,,,,,,,,,,,,,,,,,,,,2.9000000000000004,1.6,2.9000000000000004,,,,,,,,,,,,,,,,,,,,,,,,,,,,,,,,,,,118,1442.4833713409998,4,8,1,6,3,9,0,7,0,1,5,1475.4826237539999,None,4,8,1,6,3,2,0,7,,1478.9479361209999,None,1478.9479361209999,None,1478.9479361209999,None,1478.9479361209999,None,1478.9479361209999,None,1478.9479361209999,None,1478.9479361209999,None,1478.9479361209999,None,1477.641757226,1478.1482907379998,1477.641757226,1478.1482907379998,1477.641757226,1478.1482907379998,None,None,down,1.5790854000001673,1478.9479361209999,None,None,None,z,0.24643852200006222,1480.6006379039998,None,1480.8939312989999,None,,40,20,23,,,,,108,23,2022_Sep_21_1237,templeton_exp2A_SD,2020.2.10,37.51375488713102,
,,,,,,,,,,,,,,,,,,,,,,119,0,119,0,,,,,,,,,,,,,,,,,,,,,,,,2.1,2.2,2.7,,,,,,,,,,,,,,,,,,,,,,,,,,,,,,,,,,,119,1448.4826402129997,4,6,0,7,1,8,2,5,1,0,1,1481.480350183,None,4,6,0,7,1,8,2,5,,1484.145974202,None,1484.145974202,None,1484.145974202,None,1484.145974202,None,1484.145974202,None,1484.145974202,None,1484.145974202,None,1484.145974202,None,1484.2526418300001,1484.7590732,1484.2526418300001,1484.7590732,1484.2526418300001,1484.7590732,None,None,left,2.3864320070001668,1484.2526418300001,None,None,None,z,0.334079469000244,1486.7049488700002,None,1487.078195665,None,,41,20,23,,,,,108,23,2022_Sep_21_1237,templeton_exp2A_SD,2020.2.10,37.51375488713102,
,,,,,,,,,,,,,,,,,,,,,,120,0,120,0,,,,,,,,,,,,,,,,,,,,,,,,1.7,1.8,2.3,,,,,,,,,,,,,,,,,,,,,,,,,,,,,,,,,,,120,1499.618257479,0,7,3,8,2,6,1,9,1,1,2,1532.620989157,None,0,7,4,8,2,6,1,9,,1534.886779054,None,1534.886779054,None,1534.886779054,None,1534.886779054,None,1534.886779054,None,1534.886779054,None,1534.886779054,None,1534.886779054,None,1534.993364182,1535.4998808469998,1534.993364182,1535.4998808469998,1534.993364182,1535.4998808469998,None,None,down,4.173704419999922,1534.993364182,None,None,None,x,0.40727216000004773,1539.2318069300002,None,1539.6849631950001,None,,42,20,23,,,,,108,23,2022_Sep_21_1237,templeton_exp2A_SD,2020.2.10,37.51375488713102,
,,,,,,,,,,,,,,,,,,,,,,121,0,121,0,,,,,,,,,,,,,,,,,,,,,,,,2.9000000000000004,1.6,2.9000000000000004,,,,,,,,,,,,,,,,,,,,,,,,,,,,,,,,,,,121,1507.270453692,4,8,2,7,3,5,1,9,0,0,1,1540.258051605,None,4,8,2,7,3,5,1,9,,1543.7100697110002,None,1543.7100697110002,None,1543.7100697110002,None,1543.7100697110002,None,1543.7100697110002,None,1543.7100697110002,None,1543.7100697110002,None,1543.7100697110002,None,1542.4039399699998,1542.9103718919998,1542.4039399699998,1542.9103718919998,1542.4039399699998,1542.9103718919998,None,None,down,1.8169792190001317,1543.7100697110002,None,None,None,z,0.340391427999748,1545.602672537,None,1545.975854055,None,,43,20,24,,,,,108,23,2022_Sep_21_1237,templeton_exp2A_SD,2020.2.10,37.51375488713102,
,,,,,,,,,,,,,,,,,,,,,,122,0,122,0,,,,,,,,,,,,,,,,,,,,,,,,2.9000000000000004,1.6,2.9000000000000004,,,,,,,,,,,,,,,,,,,,,,,,,,,,,,,,,,,122,1513.563652458,1,8,4,9,3,7,0,6,0,1,4,1546.562303676,None,1,8,4,9,2,7,0,6,,1550.027655181,None,1550.027655181,None,1550.027655181,None,1550.027655181,None,1550.027655181,None,1550.027655181,None,1550.027655181,None,1550.027655181,None,1548.72150644,1549.2279804409998,1548.72150644,1549.2279804409998,1548.72150644,1549.2279804409998,None,None,left,2.539406031999988,1550.027655181,None,None,None,x,0.3910531900000933,1552.6400202379998,None,1553.066573496,None,,44,20,25,,,,,108,23,2022_Sep_21_1237,templeton_exp2A_SD,2020.2.10,37.51375488713102,
,,,,,,,,,,,,,,,,,,,,,,123,0,123,0,,,,,,,,,,,,,,,,,,,,,,,,1.9,2.0,2.5,,,,,,,,,,,,,,,,,,,,,,,,,,,,,,,,,,,123,1520.6513727299998,4,5,2,7,1,9,0,8,1,1,2,1553.6396392089998,None,4,5,3,7,1,9,0,8,,1556.105335434,None,1556.105335434,None,1556.105335434,None,1556.105335434,None,1556.105335434,None,1556.105335434,None,1556.105335434,None,1556.105335434,None,1556.2119511909998,1556.7185078539999,1556.2119511909998,1556.7185078539999,1556.2119511909998,1556.7185078539999,1564.2089702300002,None,left,8.163065662999998,1556.2119511909998,None,None,None,x,0.3822386550000374,1564.448839239,None,1564.875345178,None,,45,20,25,,,,,108,23,2022_Sep_21_1237,templeton_exp2A_SD,2020.2.10,37.51375488713102,
,,,,,,,,,,,,,,,,,,,,,,124,0,124,0,,,,,,,,,,,,,,,,,,,,,,,,2.9000000000000004,1.6,2.9000000000000004,,,,,,,,,,,,,,,,,,,,,,,,,,,,,,,,,,,124,1532.4605988019998,1,9,0,8,2,5,4,7,0,0,5,1565.4485427339998,None,1,9,0,8,2,5,4,7,,1568.9005640429998,None,1568.9005640429998,None,1568.9005640429998,None,1568.9005640429998,None,1568.9005640429998,None,1568.9005640429998,None,1568.9005640429998,None,1568.9005640429998,None,1567.621069724,1568.127498691,1567.621069724,1568.127498691,1567.621069724,1568.127498691,None,None,left,1.6344982119999258,1568.9005640429998,None,None,None,z,0.3204331010001624,1570.606540205,None,1570.9797273289998,None,,46,21,26,,,,,108,23,2022_Sep_21_1237,templeton_exp2A_SD,2020.2.10,37.51375488713102,
,,,,,,,,,,,,,,,,,,,,,,125,0,125,0,,,,,,,,,,,,,,,,,,,,,,,,2.9,3.0,3.5,,,,,,,,,,,,,,,,,,,,,,,,,,,,,,,,,,,125,1538.5655951429999,3,6,2,7,4,8,0,5,1,1,6,1571.5528790380001,None,3,6,2,7,4,8,1,5,,1575.0182409239999,None,1575.0182409239999,None,1575.0182409239999,None,1575.0182409239999,None,1575.0182409239999,None,1575.0182409239999,None,1575.0182409239999,None,1575.0182409239999,None,1575.12487726,1575.631347143,1575.12487726,1575.631347143,1575.12487726,1575.631347143,None,None,down,1.8901879439999902,1575.12487726,None,None,None,z,0.32019786999990174,1577.070775646,None,1577.4439103910001,None,,47,21,26,,,,,108,23,2022_Sep_21_1237,templeton_exp2A_SD,2020.2.10,37.51375488713102,
,,,,,,,,,,,,,,,,,,,,,,126,0,126,0,,,,,,,,,,,,,,,,,,,,,,,,1.9,2.0,2.5,,,,,,,,,,,,,,,,,,,,,,,,,,,,,,,,,,,126,1545.0316068789998,0,7,1,9,2,5,4,6,1,0,5,1578.030441486,None,0,7,1,9,2,5,4,6,,1580.5094202779999,None,1580.5094202779999,None,1580.5094202779999,None,1580.5094202779999,None,1580.5094202779999,None,1580.5094202779999,None,1580.5094202779999,None,1580.5094202779999,None,1580.58938831,1581.0959043589999,1580.58938831,1581.0959043589999,1580.58938831,1581.0959043589999,None,None,down,5.4736650089998875,1580.58938831,None,None,None,x,0.40102525600013905,1586.134033303,None,1586.5871367829998,None,,48,21,26,,,,,108,23,2022_Sep_21_1237,templeton_exp2A_SD,2020.2.10,37.51375488713102,
,,,,,,,,,,,,,,,,,,,,,,127,0,127,0,,,,,,,,,,,,,,,,,,,,,,,,2.9000000000000004,1.6,2.9000000000000004,,,,,,,,,,,,,,,,,,,,,,,,,,,,,,,,,,,127,1554.174040507,4,5,1,8,3,6,2,7,0,0,6,1587.1736657039999,None,4,5,1,8,3,6,2,7,,1590.6523169599998,None,1590.6523169599998,None,1590.6523169599998,None,1590.6523169599998,None,1590.6523169599998,None,1590.6523169599998,None,1590.6523169599998,None,1590.6523169599998,None,1589.3461114149998,1589.852577194,1589.3461114149998,1589.852577194,1589.3461114149998,1589.852577194,None,None,left,1.0907434569999168,1590.6523169599998,None,None,None,z,0.2565247430002273,1591.798550699,None,1592.0918091209999,None,,49,22,27,1,0.8148148148148148,1,,108,23,2022_Sep_21_1237,templeton_exp2A_SD,2020.2.10,37.51375488713102,
,,,,,,,,,,,,,,,,,,,,,,128,0,128,0,,,,,,,,,,,,,,,,,,,,,,,,2.9000000000000004,1.6,2.9000000000000004,,,,,,,,,,,,,,,,,,,,,,,,,,,,,,,,,,,128,1559.6780703559998,2,5,4,7,1,8,3,6,0,1,5,1592.678185075,None,2,5,4,7,1,0,3,6,,1596.1568656739998,None,1596.1568656739998,None,1596.1568656739998,None,1596.1568656739998,None,1596.1568656739998,None,1596.1568656739998,None,1596.1568656739998,None,1596.1568656739998,None,1594.850731099,1595.357125805,1594.850731099,1595.357125805,1594.850731099,1595.357125805,None,None,down,0.8581814249996569,1596.1568656739998,None,None,None,z,0.23726620500019635,1597.08980288,None,1597.356364423,None,,50,23,28,,,,,108,23,2022_Sep_21_1237,templeton_exp2A_SD,2020.2.10,37.51375488713102,
,,,,,,,,,,,,,,,,,,,,,,129,0,129,0,,,,,,,,,,,,,,,,,,,,,,,,1.9,2.0,2.5,,,,,,,,,,,,,,,,,,,,,,,,,,,,,,,,,,,129,1564.9433620189998,4,9,0,8,3,6,2,7,1,1,4,1597.9428404920002,None,4,9,0,8,1,6,2,7,,1600.421876741,None,1600.421876741,None,1600.421876741,None,1600.421876741,None,1600.421876741,None,1600.421876741,None,1600.421876741,None,1600.421876741,None,1600.501922607,1601.0082955320001,1600.501922607,1601.0082955320001,1600.501922607,1601.0082955320001,None,None,down,1.34512712500009,1600.501922607,None,None,None,z,0.364363314000002,1601.9147153010001,None,1602.3145557669998,None,,51,23,28,,,,,108,23,2022_Sep_21_1237,templeton_exp2A_SD,2020.2.10,37.51375488713102,
,,,,,,,,,,,,,,,,,,,,,,130,0,130,0,,,,,,,,,,,,,,,,,,,,,,,,2.9000000000000004,1.6,2.9000000000000004,,,,,,,,,,,,,,,,,,,,,,,,,,,,,,,,,,,130,1569.900536105,4,6,0,7,3,5,2,9,0,0,4,1602.9010056999998,None,4,6,0,7,3,5,2,9,,1606.3528394849998,None,1606.3528394849998,None,1606.3528394849998,None,1606.3528394849998,None,1606.3528394849998,None,1606.3528394849998,None,1606.3528394849998,None,1606.3528394849998,None,1605.073447697,1605.5799934059999,1605.073447697,1605.5799934059999,1605.073447697,1605.5799934059999,None,None,left,1.1982047090000378,1606.3528394849998,None,None,None,z,0.30525563800028976,1607.605825494,None,1607.9524443900002,None,,52,24,29,,,,,108,23,2022_Sep_21_1237,templeton_exp2A_SD,2020.2.10,37.51375488713102,
